id,trial,top_idx,within_idx,between_idx,within_is_left_or_right,trial_type,question_type,question_idx,choice,rt,stim_onset,IG,IG2,targRace,targGend,winRace,winGend,btwnRace,btwnGend,winRaceMatch,btwnRaceMatch,winGendMatch,btwnGendMatch,comparison,question
data_1_,1,8,4,11,2,2,1,5,2,7.6593,183265.1725,1,1,Asian,F,Asian,M,White,M,1,0,0,0,Two-step,Pos Action
data_1_,2,14,3,11,2,2,1,9,1,3.2535,183273.3724,0,0,White,M,Asian,F,White,M,0,1,0,1,Two-step,Pos Action
data_1_,3,8,7,9,2,1,1,6,1,3.4565,183277.1903,0,0,Asian,F,White,F,Hispanic,M,0,0,1,0,One-step,Pos Action
data_1_,4,9,10,8,2,1,2,2,2,3.9037,183281.1741,1,0,Hispanic,M,Black,F,Asian,F,0,0,0,0,One-step,Neg Action
data_1_,5,3,14,7,2,2,4,4,1,10.6417,183285.6392,0,0,Asian,F,White,M,White,F,0,0,0,1,Two-step,Similarity
data_1_,6,3,14,4,1,3,2,10,1,5.7713,183296.8105,1,0,Asian,F,White,M,Asian,M,0,1,0,0,One-versus-two-step,Neg Action
data_1_,7,14,3,13,1,3,3,3,2,3.8579,183303.1015,0,0,White,M,Asian,F,White,F,0,1,0,0,One-versus-two-step,Friendship
data_1_,8,3,14,7,2,2,2,10,2,5.8291,183307.4837,1,0,Asian,F,White,M,White,F,0,0,0,1,Two-step,Neg Action
data_1_,9,13,11,14,2,1,3,3,2,4.677,183313.8412,1,1,White,F,White,M,White,M,1,1,0,0,One-step,Friendship
data_1_,10,13,9,14,1,3,3,3,1,3.2172,183319.0367,1,1,White,F,Hispanic,M,White,M,0,1,0,0,One-versus-two-step,Friendship
data_1_,11,9,12,8,1,1,4,4,2,3.7492,183322.7716,0,0,Hispanic,M,White,M,Asian,F,0,0,1,0,One-step,Similarity
data_1_,12,3,14,4,2,3,4,4,1,3.4284,183327.0375,0,0,Asian,F,White,M,Asian,M,0,1,0,0,One-versus-two-step,Similarity
data_1_,13,4,8,1,1,2,3,3,1,1.7411,183330.9881,1,1,Asian,M,Asian,F,White,F,1,0,0,0,Two-step,Friendship
data_1_,14,4,7,3,2,1,1,7,2,8.6491,183333.2622,1,1,Asian,M,White,F,Asian,F,0,1,0,0,One-step,Pos Action
data_1_,15,3,15,4,2,1,4,4,1,5.4547,183342.4416,0,0,Asian,F,Black,M,Asian,M,0,1,0,0,One-step,Similarity
data_1_,16,13,9,2,1,2,4,4,1,2.306,183348.4173,1,1,White,F,Hispanic,M,White,F,0,1,0,1,Two-step,Similarity
data_1_,17,13,12,14,1,1,1,1,1,4.1356,183351.2557,1,1,White,F,White,M,White,M,1,1,0,0,One-step,Pos Action
data_1_,18,3,14,4,2,3,1,9,2,5.4304,183355.9201,1,1,Asian,F,White,M,Asian,M,0,1,0,0,One-versus-two-step,Pos Action
data_1_,19,13,9,2,2,2,3,3,2,3.423,183361.8792,1,1,White,F,Hispanic,M,White,F,0,1,0,1,Two-step,Friendship
data_1_,20,14,2,13,2,1,4,4,2,4.2449,183365.8298,1,1,White,M,White,F,White,F,1,1,0,0,One-step,Similarity
data_1_,21,13,12,14,1,1,2,14,2,3.4943,183370.5938,0,1,White,F,White,M,White,M,1,1,0,0,One-step,Neg Action
data_1_,22,4,7,3,2,1,4,4,1,5.2799,183374.6108,0,0,Asian,M,White,F,Asian,F,0,1,0,0,One-step,Similarity
data_1_,23,9,13,8,1,3,4,4,1,7.1526,183380.4205,1,1,Hispanic,M,White,F,Asian,F,0,0,0,0,One-versus-two-step,Similarity
data_1_,24,3,14,4,1,3,3,3,2,5.8274,183388.1059,0,0,Asian,F,White,M,Asian,M,0,1,0,0,One-versus-two-step,Friendship
data_1_,25,8,4,10,1,2,3,3,1,2.4351,183394.4634,1,1,Asian,F,Asian,M,Black,F,1,0,0,1,Two-step,Friendship
data_1_,26,13,12,14,1,1,4,4,1,2.4038,183397.418,1,1,White,F,White,M,White,M,1,1,0,0,One-step,Similarity
data_1_,27,3,14,6,1,2,1,9,2,3.3424,183400.3395,0,0,Asian,F,White,M,White,F,0,0,0,1,Two-step,Pos Action
data_1_,28,3,1,4,1,1,2,12,2,4.072,183404.2071,0,1,Asian,F,White,F,Asian,M,0,1,1,0,One-step,Neg Action
data_1_,29,8,4,9,1,3,3,3,2,6.1911,183408.805,0,0,Asian,F,Asian,M,Hispanic,M,1,0,0,0,One-versus-two-step,Friendship
data_1_,30,3,2,4,2,1,1,8,2,2.6049,183415.5277,1,1,Asian,F,White,F,Asian,M,0,1,1,0,One-step,Pos Action
data_1_,31,13,9,15,1,2,1,5,1,2.7911,183418.6649,1,1,White,F,Hispanic,M,Black,M,0,0,0,0,Two-step,Pos Action
data_1_,32,8,6,9,2,1,3,3,1,2.6865,183421.9848,0,0,Asian,F,White,F,Hispanic,M,0,0,1,0,One-step,Friendship
data_1_,33,14,3,13,1,3,2,14,1,4.5854,183425.205,1,0,White,M,Asian,F,White,F,0,1,0,0,One-versus-two-step,Neg Action
data_1_,34,14,3,13,1,3,1,8,2,3.9276,183430.3176,0,0,White,M,Asian,F,White,F,0,1,0,0,One-versus-two-step,Pos Action
data_1_,35,3,14,7,1,2,3,3,2,3.1709,183434.7661,0,0,Asian,F,White,M,White,F,0,0,0,1,Two-step,Friendship
data_1_,36,14,3,10,1,2,2,13,1,8.0754,183438.4677,1,0,White,M,Asian,F,Black,F,0,0,0,0,Two-step,Neg Action
data_1_,37,4,8,3,1,3,3,3,1,3.2303,183447.0661,1,1,Asian,M,Asian,F,Asian,F,1,1,0,0,One-versus-two-step,Friendship
data_1_,38,14,1,13,1,1,1,1,1,7.8692,183450.8175,1,1,White,M,White,F,White,F,1,1,0,0,One-step,Pos Action
data_1_,39,8,4,9,1,3,1,9,2,3.8297,183459.2167,0,0,Asian,F,Asian,M,Hispanic,M,1,0,0,0,One-versus-two-step,Pos Action
data_1_,40,9,13,7,1,2,4,4,1,2.3715,183463.5657,1,1,Hispanic,M,White,F,White,F,0,0,0,0,Two-step,Similarity
data_1_,41,14,1,13,1,1,3,3,1,2.4825,183466.4706,1,1,White,M,White,F,White,F,1,1,0,0,One-step,Friendship
data_1_,42,8,4,9,1,3,2,2,1,3.7579,183469.475,1,0,Asian,F,Asian,M,Hispanic,M,1,0,0,0,One-versus-two-step,Neg Action
data_1_,43,4,8,2,1,2,1,9,1,1.7249,183473.7576,1,1,Asian,M,Asian,F,White,F,1,0,0,0,Two-step,Pos Action
data_1_,44,4,8,3,2,3,4,4,2,2.7031,183476.0151,1,1,Asian,M,Asian,F,Asian,F,1,1,0,0,One-versus-two-step,Similarity
data_1_,45,8,5,9,2,1,2,12,2,3.3124,183479.2353,1,0,Asian,F,Black,M,Hispanic,M,0,0,0,0,One-step,Neg Action
data_1_,46,4,8,1,1,2,4,4,1,2.725,183483.0697,1,1,Asian,M,Asian,F,White,F,1,0,0,0,Two-step,Similarity
data_1_,47,14,1,13,1,1,2,14,2,4.8233,183486.3231,0,1,White,M,White,F,White,F,1,1,0,0,One-step,Neg Action
data_1_,48,9,13,8,2,3,2,11,2,3.0837,183491.6681,1,0,Hispanic,M,White,F,Asian,F,0,0,0,0,One-versus-two-step,Neg Action
data_1_,49,13,9,14,1,3,4,4,1,2.8553,183495.2701,1,1,White,F,Hispanic,M,White,M,0,1,0,0,One-versus-two-step,Similarity
data_1_,50,4,7,3,2,1,3,3,2,5.9527,183498.6563,1,1,Asian,M,White,F,Asian,F,0,1,0,0,One-step,Friendship
data_1_,51,13,9,15,1,2,2,14,1,4.8948,183505.13,1,0,White,F,Hispanic,M,Black,M,0,0,0,0,Two-step,Neg Action
data_1_,52,13,9,14,2,3,2,2,1,2.3135,183510.5579,0,1,White,F,Hispanic,M,White,M,0,1,0,0,One-versus-two-step,Neg Action
data_1_,53,14,3,10,2,2,3,3,1,3.1202,183513.3964,0,0,White,M,Asian,F,Black,F,0,0,0,0,Two-step,Friendship
data_1_,54,3,2,4,1,1,3,3,1,1.8972,183517.0482,1,1,Asian,F,White,F,Asian,M,0,1,1,0,One-step,Friendship
data_1_,55,9,11,8,1,1,1,9,2,3.5376,183519.4717,0,0,Hispanic,M,White,M,Asian,F,0,0,1,0,One-step,Pos Action
data_1_,56,9,13,6,1,2,2,2,2,3.6715,183523.5385,0,1,Hispanic,M,White,F,White,F,0,0,0,0,Two-step,Neg Action
data_1_,57,9,13,5,1,2,3,3,1,1.5346,183527.7381,1,1,Hispanic,M,White,F,Black,M,0,0,0,1,Two-step,Friendship
data_1_,58,8,4,10,2,2,2,10,1,2.1901,183529.7964,0,1,Asian,F,Asian,M,Black,F,1,0,0,1,Two-step,Neg Action
data_1_,59,9,13,6,2,2,1,5,2,2.9179,183532.5186,1,1,Hispanic,M,White,F,White,F,0,0,0,0,Two-step,Pos Action
data_1_,60,4,8,3,1,3,1,7,1,2.788,183535.9547,1,1,Asian,M,Asian,F,Asian,F,1,1,0,0,One-versus-two-step,Pos Action
data_1_,61,8,4,9,2,3,4,4,2,2.515,183539.2745,1,1,Asian,F,Asian,M,Hispanic,M,1,0,0,0,One-versus-two-step,Similarity
data_1_,62,9,13,8,1,3,3,3,1,3.9232,183542.3121,1,1,Hispanic,M,White,F,Asian,F,0,0,0,0,One-versus-two-step,Friendship
data_1_,63,4,8,3,2,3,2,14,1,1.8466,183546.7607,0,1,Asian,M,Asian,F,Asian,F,1,1,0,0,One-versus-two-step,Neg Action
data_1_,64,8,4,11,2,2,4,4,2,2.476,183549.1344,1,1,Asian,F,Asian,M,White,M,1,0,0,0,Two-step,Similarity
data_1_,65,4,8,15,2,2,2,13,1,5.0891,183552.1554,0,1,Asian,M,Asian,F,Black,M,1,0,0,1,Two-step,Neg Action
data_1_,66,14,3,13,2,3,4,4,1,4.1193,183557.766,0,0,White,M,Asian,F,White,F,0,1,0,0,One-versus-two-step,Similarity
data_1_,67,14,3,11,2,2,4,4,1,1.9654,183562.4137,0,0,White,M,Asian,F,White,M,0,1,0,1,Two-step,Similarity
data_1_,68,9,13,8,1,3,1,5,2,5.4886,183564.9036,0,0,Hispanic,M,White,F,Asian,F,0,0,0,0,One-versus-two-step,Pos Action
data_1_,69,13,9,14,1,3,1,9,1,3.5833,183570.9125,1,1,White,F,Hispanic,M,White,M,0,1,0,0,One-versus-two-step,Pos Action
data_1_,70,4,7,3,1,1,2,12,2,2.2897,183575.0291,0,1,Asian,M,White,F,Asian,F,0,1,0,0,One-step,Neg Action
data_1_,71,9,10,8,1,1,3,3,2,2.6737,183577.851,0,0,Hispanic,M,Black,F,Asian,F,0,0,0,0,One-step,Friendship
data_1_,72,8,5,9,1,1,4,4,2,2.1076,183581.0546,0,0,Asian,F,Black,M,Hispanic,M,0,0,0,0,One-step,Similarity
data_10,1,8,4,9,1,3,2,11,2,6.1191,137201.7482,0,1,Asian,M,Black,F,White,F,0,0,0,0,One-versus-two-step,Neg Action
data_10,2,8,4,9,1,3,3,3,1,3.7374,137208.4013,1,1,Asian,M,Black,F,White,F,0,0,0,0,One-versus-two-step,Friendship
data_10,3,9,13,5,1,2,1,6,2,3.961,137212.67,0,0,White,F,Black,M,White,M,0,1,0,0,Two-step,Pos Action
data_10,4,9,13,7,1,2,3,3,2,3.9379,137217.1555,0,0,White,F,Black,M,White,F,0,1,0,1,Two-step,Friendship
data_10,5,9,10,8,1,1,2,12,2,6.7709,137221.6241,0,1,White,F,White,M,Asian,M,1,0,0,0,One-step,Neg Action
data_10,6,13,9,1,2,2,3,3,1,6.1348,137228.9277,0,0,Black,M,White,F,White,M,0,0,0,1,Two-step,Friendship
data_10,7,4,7,3,2,1,1,9,1,4.4671,137235.5975,0,0,Black,F,White,F,Black,M,0,1,1,0,One-step,Pos Action
data_10,8,3,14,7,2,2,3,3,2,5.0006,137240.5999,1,1,Black,M,Hispanic,M,White,F,0,0,1,0,Two-step,Friendship
data_10,9,3,14,7,1,2,1,7,1,4.1033,137246.1359,1,1,Black,M,Hispanic,M,White,F,0,0,1,0,Two-step,Pos Action
data_10,10,4,8,3,1,3,4,4,1,5.6614,137250.7714,1,1,Black,F,Asian,M,Black,M,0,1,0,0,One-versus-two-step,Similarity
data_10,11,8,7,9,2,1,3,3,2,10.7764,137256.9577,1,1,Asian,M,White,F,White,F,0,0,0,0,One-step,Friendship
data_10,12,14,3,13,1,3,1,8,2,5.9128,137268.263,0,0,Hispanic,M,Black,M,Black,M,0,0,1,1,One-versus-two-step,Pos Action
data_10,13,13,9,15,1,2,2,13,1,4.0796,137274.6994,1,0,Black,M,White,F,Asian,F,0,0,0,0,Two-step,Neg Action
data_10,14,4,8,3,1,3,3,3,1,6.8063,137279.3016,1,1,Black,F,Asian,M,Black,M,0,1,0,0,One-versus-two-step,Friendship
data_10,15,14,1,13,2,1,1,1,2,6.2743,137286.6384,1,1,Hispanic,M,White,M,Black,M,0,0,1,1,One-step,Pos Action
data_10,16,14,1,13,1,1,3,3,2,6.0667,137293.4416,0,0,Hispanic,M,White,M,Black,M,0,0,1,1,One-step,Friendship
data_10,17,14,3,11,2,2,3,3,1,3.7592,137300.0447,0,0,Hispanic,M,Black,M,Asian,F,0,0,1,0,Two-step,Friendship
data_10,18,14,3,13,1,3,3,3,1,3.6759,137304.3301,1,1,Hispanic,M,Black,M,Black,M,0,0,1,1,One-versus-two-step,Friendship
data_10,19,8,6,9,1,1,2,12,2,7.2723,137308.5321,0,1,Asian,M,White,F,White,F,0,0,0,0,One-step,Neg Action
data_10,20,14,3,10,2,2,1,9,2,4.5858,137316.3358,1,1,Hispanic,M,Black,M,White,M,0,0,1,1,Two-step,Pos Action
data_10,21,4,8,1,2,2,3,3,2,4.0051,137321.4549,1,1,Black,F,Asian,M,White,M,0,0,0,0,Two-step,Friendship
data_10,22,14,15,13,1,1,4,4,2,8.0197,137325.9904,0,0,Hispanic,M,Asian,F,Black,M,0,0,0,1,One-step,Similarity
data_10,23,9,13,8,1,3,2,14,2,7.3514,137334.5445,0,1,White,F,Black,M,Asian,M,0,0,0,0,One-versus-two-step,Neg Action
data_10,24,9,13,8,1,3,1,9,1,3.6952,137342.4315,1,1,White,F,Black,M,Asian,M,0,0,0,0,One-versus-two-step,Pos Action
data_10,25,3,14,4,2,3,1,5,2,9.2177,137346.6502,1,1,Black,M,Hispanic,M,Black,F,0,1,1,0,One-versus-two-step,Pos Action
data_10,26,4,8,3,2,3,2,10,1,7.3779,137356.3882,0,1,Black,F,Asian,M,Black,M,0,1,0,0,One-versus-two-step,Neg Action
data_10,27,13,9,14,2,3,4,4,1,3.4962,137364.2918,0,0,Black,M,White,F,Hispanic,M,0,0,0,1,One-versus-two-step,Similarity
data_10,28,13,9,1,1,2,4,4,2,3.0655,137368.3105,0,0,Black,M,White,F,White,M,0,0,0,1,Two-step,Similarity
data_10,29,13,9,2,2,2,1,6,1,11.3266,137371.9121,0,0,Black,M,White,F,White,F,0,0,0,0,Two-step,Pos Action
data_10,30,3,1,4,2,1,1,8,2,5.1595,137383.7678,1,1,Black,M,White,M,Black,F,0,1,1,0,One-step,Pos Action
data_10,31,13,12,14,1,1,4,4,2,4.6272,137389.4538,0,0,Black,M,White,F,Hispanic,M,0,0,0,1,One-step,Similarity
data_10,32,8,7,9,2,1,4,4,2,5.8952,137394.6063,1,1,Asian,M,White,F,White,F,0,0,0,0,One-step,Similarity
data_10,33,9,13,5,2,2,4,4,1,2.7355,137401.026,0,0,White,F,Black,M,White,M,0,1,0,0,Two-step,Similarity
data_10,34,4,6,3,1,1,4,4,1,2.5879,137404.2942,1,1,Black,F,White,F,Black,M,0,1,1,0,One-step,Similarity
data_10,35,8,4,12,1,2,1,6,1,8.0296,137407.4123,1,1,Asian,M,Black,F,White,F,0,0,0,0,Two-step,Pos Action
data_10,36,4,8,3,1,3,1,5,2,3.9191,137415.9663,0,0,Black,F,Asian,M,Black,M,0,1,0,0,One-versus-two-step,Pos Action
data_10,37,3,1,4,2,1,4,4,1,7.565,137420.4185,0,0,Black,M,White,M,Black,F,0,1,1,0,One-step,Similarity
data_10,38,9,11,8,1,1,1,5,1,3.0445,137428.5056,1,1,White,F,Asian,F,Asian,M,0,0,1,0,One-step,Pos Action
data_10,39,4,8,15,2,2,4,4,1,7.6076,137432.074,0,0,Black,F,Asian,M,Asian,F,0,0,0,1,Two-step,Similarity
data_10,40,9,11,8,2,1,4,4,2,2.8818,137440.2112,1,1,White,F,Asian,F,Asian,M,0,0,1,0,One-step,Similarity
data_10,41,8,4,10,1,2,4,4,1,2.6085,137443.6294,1,1,Asian,M,Black,F,White,M,0,0,0,1,Two-step,Similarity
data_10,42,3,2,4,2,1,2,12,2,3.1374,137446.7643,1,0,Black,M,White,F,Black,F,0,1,0,0,One-step,Neg Action
data_10,43,8,4,9,2,3,1,1,2,2.8239,137450.4327,1,1,Asian,M,Black,F,White,F,0,0,0,0,One-versus-two-step,Pos Action
data_10,44,3,14,4,2,3,3,3,1,3.3765,137453.7843,0,0,Black,M,Hispanic,M,Black,F,0,1,1,0,One-versus-two-step,Friendship
data_10,45,8,5,9,2,1,1,6,2,5.1082,137457.6861,1,1,Asian,M,White,M,White,F,0,0,1,0,One-step,Pos Action
data_10,46,3,2,4,1,1,3,3,2,3.3229,137463.3222,0,0,Black,M,White,F,Black,F,0,1,0,0,One-step,Friendship
data_10,47,9,10,8,1,1,3,3,1,3.2944,137467.174,1,1,White,F,White,M,Asian,M,1,0,0,0,One-step,Friendship
data_10,48,14,2,13,1,1,2,11,1,2.6113,137470.9925,1,0,Hispanic,M,White,F,Black,M,0,0,0,1,One-step,Neg Action
data_10,49,14,3,13,2,3,4,4,1,7.9126,137474.1273,0,0,Hispanic,M,Black,M,Black,M,0,0,1,1,One-versus-two-step,Similarity
data_10,50,13,9,14,1,3,2,2,1,6.7158,137482.5646,1,0,Black,M,White,F,Hispanic,M,0,0,0,1,One-versus-two-step,Neg Action
data_10,51,3,14,4,2,3,2,11,2,9.9347,137489.8014,1,0,Black,M,Hispanic,M,Black,F,0,1,1,0,One-versus-two-step,Neg Action
data_10,52,3,14,6,1,2,2,10,2,4.973,137500.2563,0,1,Black,M,Hispanic,M,White,F,0,0,1,0,Two-step,Neg Action
data_10,53,8,4,11,1,2,3,3,1,7.3718,137505.7589,1,1,Asian,M,Black,F,Asian,F,0,1,0,0,Two-step,Friendship
data_10,54,8,4,9,2,3,4,4,2,4.6362,137513.6626,1,1,Asian,M,Black,F,White,F,0,0,0,0,One-versus-two-step,Similarity
data_10,55,13,9,14,2,3,3,3,1,2.1549,137518.8318,0,0,Black,M,White,F,Hispanic,M,0,0,0,1,One-versus-two-step,Friendship
data_10,56,3,14,5,2,2,4,4,2,3.9688,137521.5164,1,1,Black,M,Hispanic,M,White,M,0,0,1,1,Two-step,Similarity
data_10,57,14,3,13,2,3,2,10,2,6.6495,137526.0186,1,0,Hispanic,M,Black,M,Black,M,0,0,1,1,One-versus-two-step,Neg Action
data_10,58,13,12,14,1,1,3,3,2,1.527,137533.1886,0,0,Black,M,White,F,Hispanic,M,0,0,0,1,One-step,Friendship
data_10,59,14,3,10,1,2,2,10,2,7.754,137535.2395,0,1,Hispanic,M,Black,M,White,M,0,0,1,1,Two-step,Neg Action
data_10,60,4,5,3,2,1,3,3,1,7.9602,137543.5268,0,0,Black,F,White,M,Black,M,0,1,0,0,One-step,Friendship
data_10,61,13,12,14,1,1,2,2,1,6.3202,137552.0142,1,0,Black,M,White,F,Hispanic,M,0,0,0,1,One-step,Neg Action
data_10,62,4,8,2,2,2,2,10,1,3.9096,137558.8675,0,1,Black,F,Asian,M,White,F,0,0,0,1,Two-step,Neg Action
data_10,63,13,9,14,2,3,1,9,2,3.0946,137563.3029,1,1,Black,M,White,F,Hispanic,M,0,0,0,1,One-versus-two-step,Pos Action
data_10,64,9,13,8,1,3,3,3,1,1.7161,137566.9213,1,1,White,F,Black,M,Asian,M,0,0,0,0,One-versus-two-step,Friendship
data_10,65,14,3,10,2,2,4,4,2,4.8774,137569.1724,1,1,Hispanic,M,Black,M,White,M,0,0,1,1,Two-step,Similarity
data_10,66,13,11,14,2,1,1,7,1,9.5151,137574.5749,0,0,Black,M,Asian,F,Hispanic,M,0,0,0,1,One-step,Pos Action
data_10,67,4,8,2,1,2,1,9,1,2.9619,137584.613,1,1,Black,F,Asian,M,White,F,0,0,0,1,Two-step,Pos Action
data_10,68,8,4,12,1,2,2,10,2,4.5871,137588.0979,0,1,Asian,M,Black,F,White,F,0,0,0,0,Two-step,Neg Action
data_10,69,9,13,8,2,3,4,4,1,6.0708,137593.2171,0,0,White,F,Black,M,Asian,M,0,0,0,0,One-versus-two-step,Similarity
data_10,70,3,14,4,2,3,4,4,2,4.1,137599.8202,1,1,Black,M,Hispanic,M,Black,F,0,1,1,0,One-versus-two-step,Similarity
data_10,71,9,13,5,1,2,2,10,1,10.8553,137604.4558,1,0,White,F,Black,M,White,M,0,1,0,0,Two-step,Neg Action
data_10,72,4,5,3,2,1,2,10,2,8.9076,137615.8445,1,0,Black,F,White,M,Black,M,0,1,0,0,One-step,Neg Action
data_11,1,13,9,2,1,2,1,7,2,11.6115,139152.3661,0,0,Black,M,White,M,White,F,0,0,1,0,Two-step,Pos Action
data_11,2,9,13,8,1,3,1,6,2,8.2252,139164.5053,0,0,White,M,Black,M,White,F,0,1,1,0,One-versus-two-step,Pos Action
data_11,3,4,5,3,2,1,2,12,2,7.6794,139173.2594,1,0,White,M,Asian,M,Hispanic,M,0,0,1,1,One-step,Neg Action
data_11,4,14,3,11,1,2,1,8,1,6.7308,139181.4633,1,1,Asian,F,Hispanic,M,White,M,0,0,0,0,Two-step,Pos Action
data_11,5,14,1,13,2,1,2,13,1,3.317,139188.7167,0,1,Asian,F,White,F,Black,M,0,0,1,0,One-step,Neg Action
data_11,6,8,4,10,1,2,4,4,1,6.5538,139192.5685,1,1,White,F,White,M,White,F,1,1,0,1,Two-step,Similarity
data_11,7,3,14,4,2,3,1,7,1,5.7705,139199.6553,0,0,Hispanic,M,Asian,F,White,M,0,0,0,1,One-versus-two-step,Pos Action
data_11,8,8,4,9,2,3,3,3,2,3.4437,139205.9583,1,1,White,F,White,M,White,M,1,1,0,0,One-versus-two-step,Friendship
data_11,9,8,6,9,2,1,4,4,2,4.9874,139209.9268,1,1,White,F,Black,M,White,M,0,1,0,0,One-step,Similarity
data_11,10,13,9,1,1,2,3,3,1,4.5006,139215.4461,1,1,Black,M,White,M,White,F,0,0,1,0,Two-step,Friendship
data_11,11,8,4,11,1,2,3,3,2,3.4808,139220.4817,0,0,White,F,White,M,White,M,1,1,0,0,Two-step,Friendship
data_11,12,9,13,8,2,3,2,14,2,5.0068,139224.4836,1,0,White,M,Black,M,White,F,0,1,1,0,One-versus-two-step,Neg Action
data_11,13,3,14,4,2,3,3,3,2,5.3747,139230.0197,1,1,Hispanic,M,Asian,F,White,M,0,0,0,1,One-versus-two-step,Friendship
data_11,14,9,13,7,1,2,3,3,2,3.5756,139235.9224,0,0,White,M,Black,M,Black,F,0,0,1,0,Two-step,Friendship
data_11,15,9,10,8,2,1,4,4,2,5.0742,139240.0242,1,1,White,M,White,F,White,F,1,1,0,0,One-step,Similarity
data_11,16,3,2,4,1,1,1,8,1,3.4155,139245.6271,1,1,Hispanic,M,White,F,White,M,0,0,0,1,One-step,Pos Action
data_11,17,3,14,4,2,3,2,2,2,4.8958,139249.5788,1,0,Hispanic,M,Asian,F,White,M,0,0,0,1,One-versus-two-step,Neg Action
data_11,18,14,1,13,2,1,3,3,2,2.8684,139254.9982,1,1,Asian,F,White,F,Black,M,0,0,1,0,One-step,Friendship
data_11,19,14,3,13,2,3,3,3,2,3.267,139258.3997,1,1,Asian,F,Hispanic,M,Black,M,0,0,0,0,One-versus-two-step,Friendship
data_11,20,4,5,3,1,1,1,6,1,5.9841,139262.2016,1,1,White,M,Asian,M,Hispanic,M,0,0,1,1,One-step,Pos Action
data_11,21,8,4,9,1,3,4,4,1,3.801,139268.7213,1,1,White,F,White,M,White,M,1,1,0,0,One-versus-two-step,Similarity
data_11,22,8,4,9,1,3,2,11,1,3.5218,139273.0567,1,0,White,F,White,M,White,M,1,1,0,0,One-versus-two-step,Neg Action
data_11,23,3,14,5,1,2,4,4,1,3.6458,139277.1087,1,1,Hispanic,M,Asian,F,Asian,M,0,0,0,1,Two-step,Similarity
data_11,24,3,2,4,1,1,2,10,2,3.1012,139281.2773,0,1,Hispanic,M,White,F,White,M,0,0,0,1,One-step,Neg Action
data_11,25,14,3,11,1,2,2,10,1,3.9463,139284.9123,1,0,Asian,F,Hispanic,M,White,M,0,0,0,0,Two-step,Neg Action
data_11,26,13,12,14,1,1,1,9,2,3.3414,139289.3811,0,0,Black,M,Asian,F,Asian,F,0,0,0,0,One-step,Pos Action
data_11,27,4,6,3,2,1,3,3,1,5.3447,139293.2496,0,0,White,M,Black,M,Hispanic,M,0,0,1,1,One-step,Friendship
data_11,28,8,4,10,2,2,2,12,1,2.4511,139299.1189,0,1,White,F,White,M,White,F,1,1,0,1,Two-step,Neg Action
data_11,29,13,9,2,2,2,4,4,1,2.9949,139302.1038,0,0,Black,M,White,M,White,F,0,0,1,0,Two-step,Similarity
data_11,30,4,8,15,2,2,4,4,2,3.892,139305.6222,1,1,White,M,White,F,White,F,1,1,0,0,Two-step,Similarity
data_11,31,8,4,10,1,2,1,6,1,3.329,139310.0409,1,1,White,F,White,M,White,F,1,1,0,1,Two-step,Pos Action
data_11,32,14,3,10,1,2,4,4,1,2.9331,139313.8928,1,1,Asian,F,Hispanic,M,White,F,0,0,0,1,Two-step,Similarity
data_11,33,13,9,14,2,3,4,4,1,3.5608,139317.361,0,0,Black,M,White,M,Asian,F,0,0,1,0,One-versus-two-step,Similarity
data_11,34,4,8,3,2,3,2,10,1,2.8683,139321.4464,0,1,White,M,White,F,Hispanic,M,1,0,0,1,One-versus-two-step,Neg Action
data_11,35,3,14,7,1,2,3,3,1,3.0343,139324.8479,1,1,Hispanic,M,Asian,F,Black,F,0,0,0,0,Two-step,Friendship
data_11,36,4,8,2,1,2,1,6,1,4.978,139328.4163,1,1,White,M,White,F,White,F,1,1,0,0,Two-step,Pos Action
data_11,37,3,14,4,1,3,4,4,2,2.7238,139333.9189,0,0,Hispanic,M,Asian,F,White,M,0,0,0,1,One-versus-two-step,Similarity
data_11,38,14,3,12,2,2,3,3,2,2.5918,139337.1704,1,1,Asian,F,Hispanic,M,Asian,F,0,1,0,1,Two-step,Friendship
data_11,39,9,13,6,1,2,1,9,1,5.7212,139340.2886,1,1,White,M,Black,M,Black,M,0,0,1,1,Two-step,Pos Action
data_11,40,13,9,1,1,2,2,11,1,3.3172,139346.5416,1,0,Black,M,White,M,White,F,0,0,1,0,Two-step,Neg Action
data_11,41,4,8,2,1,2,3,3,1,3.1371000000000002,139350.3934,1,1,White,M,White,F,White,F,1,1,0,0,Two-step,Friendship
data_11,42,13,11,14,2,1,2,12,1,2.5248,139354.0617,0,1,Black,M,White,M,Asian,F,0,0,1,0,One-step,Neg Action
data_11,43,13,10,14,2,1,4,4,2,4.5449,139357.1132,1,1,Black,M,White,F,Asian,F,0,0,0,0,One-step,Similarity
data_11,44,13,9,14,2,3,1,7,2,1.6524,139362.1823,1,1,Black,M,White,M,Asian,F,0,0,1,0,One-versus-two-step,Pos Action
data_11,45,8,4,9,2,3,1,1,2,2.78,139364.3666,1,1,White,F,White,M,White,M,1,1,0,0,One-versus-two-step,Pos Action
data_11,46,9,12,8,1,1,2,10,2,3.518,139367.6681,0,1,White,M,Asian,F,White,F,0,1,0,0,One-step,Neg Action
data_11,47,9,13,8,1,3,3,3,2,2.2178,139371.7202,0,0,White,M,Black,M,White,F,0,1,1,0,One-versus-two-step,Friendship
data_11,48,13,10,14,1,1,3,3,1,2.9947,139374.4715,1,1,Black,M,White,F,Asian,F,0,0,0,0,One-step,Friendship
data_11,49,4,8,3,1,3,3,3,1,2.7242,139377.9898,1,1,White,M,White,F,Hispanic,M,1,0,0,1,One-versus-two-step,Friendship
data_11,50,14,3,13,1,3,1,5,1,3.3686,139381.2413,1,1,Asian,F,Hispanic,M,Black,M,0,0,0,0,One-versus-two-step,Pos Action
data_11,51,4,5,3,1,1,4,4,2,3.1869,139385.1432,0,0,White,M,Asian,M,Hispanic,M,0,0,1,1,One-step,Similarity
data_11,52,9,11,8,1,1,1,1,1,2.5171,139388.8616,1,1,White,M,White,M,White,F,1,1,1,0,One-step,Pos Action
data_11,53,14,3,13,1,3,2,13,2,2.8893,139391.913,0,1,Asian,F,Hispanic,M,Black,M,0,0,0,0,One-versus-two-step,Neg Action
data_11,54,3,14,6,2,2,1,6,2,2.8943,139395.3314,1,1,Hispanic,M,Asian,F,Black,M,0,0,0,1,Two-step,Pos Action
data_11,55,4,8,3,1,3,1,9,1,2.5885,139398.7496,1,1,White,M,White,F,Hispanic,M,1,0,0,1,One-versus-two-step,Pos Action
data_11,56,14,2,13,2,1,4,4,2,3.3347,139401.8677,1,1,Asian,F,White,F,Black,M,0,0,1,0,One-step,Similarity
data_11,57,13,9,14,2,3,2,10,2,2.4898,139405.7363,1,0,Black,M,White,M,Asian,F,0,0,1,0,One-versus-two-step,Neg Action
data_11,58,9,12,8,1,1,3,3,1,3.7594,139408.7543,1,1,White,M,Asian,F,White,F,0,1,0,0,One-step,Friendship
data_11,59,4,8,1,2,2,2,14,2,3.1707,139413.0398,1,0,White,M,White,F,White,F,1,1,0,0,Two-step,Neg Action
data_11,60,13,9,14,1,3,3,3,1,3.3567,139416.7415,1,1,Black,M,White,M,Asian,F,0,0,1,0,One-versus-two-step,Friendship
data_11,61,8,7,9,2,1,2,11,2,3.2239,139420.6267,1,0,White,F,Black,F,White,M,0,1,1,0,One-step,Neg Action
data_11,62,9,13,6,2,2,4,4,2,4.376,139424.3784,1,1,White,M,Black,M,Black,M,0,0,1,1,Two-step,Similarity
data_11,63,3,2,4,1,1,3,3,1,3.2975,139429.2808,1,1,Hispanic,M,White,F,White,M,0,0,0,1,One-step,Friendship
data_11,64,9,13,8,1,3,4,4,1,4.3351,139433.0993,1,1,White,M,Black,M,White,F,0,1,1,0,One-versus-two-step,Similarity
data_11,65,9,13,6,2,2,2,11,2,3.2582,139437.9682,1,0,White,M,Black,M,Black,M,0,0,1,1,Two-step,Neg Action
data_11,66,3,2,4,1,1,4,4,1,3.6167,139441.7532,1,1,Hispanic,M,White,F,White,M,0,0,0,1,One-step,Similarity
data_11,67,4,8,3,2,3,4,4,1,2.2251,139445.9053,0,0,White,M,White,F,Hispanic,M,1,0,0,1,One-versus-two-step,Similarity
data_11,68,8,7,9,2,1,1,8,2,0.6818,139448.6566,1,1,White,F,Black,F,White,M,0,1,1,0,One-step,Pos Action
data_11,69,14,1,13,1,1,1,1,1,2.1046,139449.8738,1,1,Asian,F,White,F,Black,M,0,0,1,0,One-step,Pos Action
data_11,70,14,3,13,1,3,4,4,1,2.0381,139452.5084,1,1,Asian,F,Hispanic,M,Black,M,0,0,0,0,One-versus-two-step,Similarity
data_11,71,8,7,9,1,1,3,3,1,2.2464,139455.0762,1,1,White,F,Black,F,White,M,0,1,1,0,One-step,Friendship
data_11,72,3,14,7,2,2,2,10,2,3.1018,139457.8443,1,0,Hispanic,M,Asian,F,Black,F,0,0,0,0,Two-step,Neg Action
data_12,1,4,8,2,1,2,2,10,1,7.7969,142503.8123,1,0,White,M,Black,M,White,F,0,1,1,0,Two-step,Neg Action
data_12,2,9,13,8,2,3,1,9,1,7.3968,142512.133,0,0,Black,F,White,F,Black,M,0,1,1,0,One-versus-two-step,Pos Action
data_12,3,8,5,9,2,1,3,3,1,4.5801,142520.0534,0,0,Black,M,Asian,F,Black,F,0,1,0,0,One-step,Friendship
data_12,4,3,1,4,2,1,1,7,1,3.5499,142525.1558,0,0,White,M,White,M,White,M,1,1,1,1,One-step,Pos Action
data_12,5,14,2,13,1,1,3,3,1,5.2958,142529.2411,1,1,White,F,White,F,White,F,1,1,1,1,One-step,Friendship
data_12,6,14,3,13,2,3,3,3,1,7.0926,142535.0605,0,0,White,F,White,M,White,F,1,1,0,1,One-versus-two-step,Friendship
data_12,7,9,13,6,1,2,4,4,2,6.1127,142542.6808,0,0,Black,F,White,F,Asian,M,0,0,1,0,Two-step,Similarity
data_12,8,4,7,3,2,1,2,13,1,5.1157,142549.3173,0,1,White,M,White,F,White,M,1,1,0,1,One-step,Neg Action
data_12,9,3,2,4,1,1,3,3,1,2.6481,142554.9533,1,1,White,M,White,F,White,M,1,1,0,1,One-step,Friendship
data_12,10,14,3,10,2,2,2,2,2,4.214,142558.1215,1,0,White,F,White,M,Hispanic,M,1,0,0,0,Two-step,Neg Action
data_12,11,9,13,7,1,2,1,7,1,5.8058,142562.857,1,1,Black,F,White,F,White,F,0,0,1,1,Two-step,Pos Action
data_12,12,3,14,5,2,2,2,14,1,6.2631,142569.1934,0,1,White,M,White,F,Asian,F,1,0,0,0,Two-step,Neg Action
data_12,13,4,8,3,1,3,1,1,1,4.5753,142575.9799,1,1,White,M,Black,M,White,M,0,1,1,1,One-versus-two-step,Pos Action
data_12,14,8,4,9,2,3,4,4,2,5.8635,142581.0824,1,1,Black,M,White,M,Black,F,0,1,1,0,One-versus-two-step,Similarity
data_12,15,3,15,4,2,1,4,4,2,5.7366,142587.4687,1,1,White,M,Asian,F,White,M,0,1,0,1,One-step,Similarity
data_12,16,13,9,14,2,3,1,8,2,3.8804,142593.7384,1,1,White,F,Black,F,White,F,0,1,1,1,One-versus-two-step,Pos Action
data_12,17,9,13,8,2,3,2,10,2,3.1883,142598.1404,1,0,Black,F,White,F,Black,M,0,1,1,0,One-versus-two-step,Neg Action
data_12,18,3,2,4,2,1,2,11,2,3.3691,142601.8589,1,0,White,M,White,F,White,M,1,1,0,1,One-step,Neg Action
data_12,19,14,3,11,1,2,3,3,1,4.8474,142605.7607,1,1,White,F,White,M,White,F,1,1,0,1,Two-step,Friendship
data_12,20,3,14,4,2,3,2,2,2,4.7557,142611.1299,1,0,White,M,White,F,White,M,1,1,0,1,One-versus-two-step,Neg Action
data_12,21,13,10,14,1,1,3,3,1,4.5389,142616.4158,1,1,White,F,Hispanic,M,White,F,0,1,0,1,One-step,Friendship
data_12,22,3,14,6,1,2,3,3,1,3.875,142621.4849,1,1,White,M,White,F,Asian,M,1,0,0,1,Two-step,Friendship
data_12,23,13,11,14,2,1,4,4,1,2.8204,142625.8869,0,0,White,F,White,F,White,F,1,1,1,1,One-step,Similarity
data_12,24,14,2,13,1,1,4,4,1,5.2481,142629.2385,1,1,White,F,White,F,White,F,1,1,1,1,One-step,Similarity
data_12,25,9,13,6,2,2,3,3,1,2.6943,142635.0079,0,0,Black,F,White,F,Asian,M,0,0,1,0,Two-step,Friendship
data_12,26,14,1,13,2,1,1,8,2,4.6619,142638.2261,1,1,White,F,White,M,White,F,1,1,0,1,One-step,Pos Action
data_12,27,4,8,1,1,2,4,4,1,5.0416,142643.4119,1,1,White,M,Black,M,White,M,0,1,1,1,Two-step,Similarity
data_12,28,8,4,9,2,3,1,6,2,4.0567,142648.9812,1,1,Black,M,White,M,Black,F,0,1,1,0,One-versus-two-step,Pos Action
data_12,29,4,8,2,1,2,3,3,1,4.626,142653.5666,1,1,White,M,Black,M,White,F,0,1,1,0,Two-step,Friendship
data_12,30,14,15,13,2,1,2,12,1,4.4352,142658.7192,0,1,White,F,Asian,F,White,F,0,1,1,1,One-step,Neg Action
data_12,31,9,13,8,2,3,4,4,1,6.0201,142663.6882,0,0,Black,F,White,F,Black,M,0,1,1,0,One-versus-two-step,Similarity
data_12,32,13,9,14,2,3,4,4,2,9.0123,142670.2412,1,1,White,F,Black,F,White,F,0,1,1,1,One-versus-two-step,Similarity
data_12,33,4,7,3,2,1,3,3,1,4.1888,142679.7792,0,0,White,M,White,F,White,M,1,1,0,1,One-step,Friendship
data_12,34,9,13,5,1,2,2,2,2,14.8393,142684.498,0,1,Black,F,White,F,Asian,F,0,0,1,1,Two-step,Neg Action
data_12,35,13,9,14,1,3,3,3,1,5.0261,142699.872,1,1,White,F,Black,F,White,F,0,1,1,1,One-versus-two-step,Friendship
data_12,36,8,4,12,1,2,1,7,1,4.1413,142705.4246,1,1,Black,M,White,M,Black,M,0,1,1,1,Two-step,Pos Action
data_12,37,9,11,8,2,1,2,2,1,3.9291,142710.0935,0,1,Black,F,White,F,Black,M,0,1,1,0,One-step,Neg Action
data_12,38,13,9,15,1,2,3,3,2,3.0061,142714.5456,0,0,White,F,Black,F,Asian,F,0,0,1,1,Two-step,Friendship
data_12,39,4,8,3,1,3,4,4,2,4.9211,142718.0806,0,0,White,M,Black,M,White,M,0,1,1,1,One-versus-two-step,Similarity
data_12,40,13,12,14,1,1,2,12,2,4.9761,142723.5332,0,1,White,F,Black,M,White,F,0,1,0,1,One-step,Neg Action
data_12,41,13,9,14,1,3,2,12,2,5.4835,142729.0358,0,1,White,F,Black,F,White,F,0,1,1,1,One-versus-two-step,Neg Action
data_12,42,4,8,3,2,3,2,11,1,4.9192,142735.0554,0,1,White,M,Black,M,White,M,0,1,1,1,One-versus-two-step,Neg Action
data_12,43,14,3,11,1,2,1,9,2,3.916,142740.5079,0,0,White,F,White,M,White,F,1,1,0,1,Two-step,Pos Action
data_12,44,8,4,9,2,3,3,3,2,2.8298,142744.9601,1,1,Black,M,White,M,Black,F,0,1,1,0,One-versus-two-step,Friendship
data_12,45,3,14,4,2,3,3,3,2,3.8849,142748.3117,1,1,White,M,White,F,White,M,1,1,0,1,One-versus-two-step,Friendship
data_12,46,8,4,12,2,2,4,4,2,5.8882,142752.7304,1,1,Black,M,White,M,Black,M,0,1,1,1,Two-step,Similarity
data_12,47,14,3,10,1,2,4,4,1,11.649,142759.1501,1,1,White,F,White,M,Hispanic,M,1,0,0,0,Two-step,Similarity
data_12,48,3,14,4,2,3,4,4,2,4.1295,142771.3225,1,1,White,M,White,F,White,M,1,1,0,1,One-versus-two-step,Similarity
data_12,49,8,5,9,1,1,4,4,2,5.5203,142775.9748,0,0,Black,M,Asian,F,Black,F,0,1,0,0,One-step,Similarity
data_12,50,8,6,9,2,1,2,10,2,4.6127,142782.0275,1,0,Black,M,Asian,M,Black,F,0,1,1,0,One-step,Neg Action
data_12,51,3,14,5,2,2,1,1,2,4.5555,142787.1634,1,1,White,M,White,F,Asian,F,1,0,0,0,Two-step,Pos Action
data_12,52,9,12,8,2,1,4,4,1,4.4903,142792.2492,0,0,Black,F,Black,M,Black,M,1,1,0,0,One-step,Similarity
data_12,53,4,8,1,1,2,1,8,1,4.419,142797.2681,1,1,White,M,Black,M,White,M,0,1,1,1,Two-step,Pos Action
data_12,54,9,13,8,1,3,3,3,2,1.8981,142802.2205,0,0,Black,F,White,F,Black,M,0,1,1,0,One-versus-two-step,Friendship
data_12,55,8,4,9,2,3,2,14,2,2.5838,142804.655,1,0,Black,M,White,M,Black,F,0,1,1,0,One-versus-two-step,Neg Action
data_12,56,4,8,3,2,3,3,3,1,1.8098,142807.7732,0,0,White,M,Black,M,White,M,0,1,1,1,One-versus-two-step,Friendship
data_12,57,8,4,10,2,2,3,3,1,3.8247,142810.1076,0,0,Black,M,White,M,Hispanic,M,0,0,1,1,Two-step,Friendship
data_12,58,4,5,3,1,1,4,4,2,3.4263,142814.4597,0,0,White,M,Asian,F,White,M,0,1,0,1,One-step,Similarity
data_12,59,14,3,13,2,3,1,8,1,3.675,142818.4116,0,0,White,F,White,M,White,F,1,1,0,1,One-versus-two-step,Pos Action
data_12,60,13,12,14,2,1,1,6,1,4.111,142822.6135,0,0,White,F,Black,M,White,F,0,1,0,1,One-step,Pos Action
data_12,61,3,14,4,2,3,1,8,2,8.103,142827.2491,1,1,White,M,White,F,White,M,1,1,0,1,One-versus-two-step,Pos Action
data_12,62,8,4,11,2,2,2,14,2,5.7422,142835.8865,1,0,Black,M,White,M,White,F,0,0,1,0,Two-step,Neg Action
data_12,63,13,9,2,2,2,4,4,2,6.4489,142842.156,1,1,White,F,Black,F,White,F,0,1,1,1,Two-step,Similarity
data_12,64,8,7,9,1,1,1,6,2,4.3344,142849.1261,0,0,Black,M,White,F,Black,F,0,1,0,0,One-step,Pos Action
data_12,65,14,3,13,1,3,2,12,2,4.2252,142853.9951,0,1,White,F,White,M,White,F,1,1,0,1,One-versus-two-step,Neg Action
data_12,66,13,9,2,2,2,1,9,1,3.8597,142858.7473,0,0,White,F,Black,F,White,F,0,1,1,1,Two-step,Pos Action
data_12,67,9,11,8,1,1,1,7,1,3.1244,142863.1327,1,1,Black,F,White,F,Black,M,0,1,1,0,One-step,Pos Action
data_12,68,13,9,2,1,2,2,14,1,13.3195,142866.7844,1,0,White,F,Black,F,White,F,0,1,1,1,Two-step,Neg Action
data_12,69,4,7,3,1,1,1,1,2,4.7301,142880.6243,0,0,White,M,White,F,White,M,1,1,0,1,One-step,Pos Action
data_12,70,9,12,8,2,1,3,3,1,2.9176,142885.8769,0,0,Black,F,Black,M,Black,M,1,1,0,0,One-step,Friendship
data_12,71,3,14,5,2,2,4,4,2,5.4586,142889.3284,1,1,White,M,White,F,Asian,F,1,0,0,0,Two-step,Similarity
data_12,72,14,3,13,2,3,4,4,2,5.1668,142895.3147,1,1,White,F,White,M,White,F,1,1,0,1,One-versus-two-step,Similarity
data_13,1,13,12,14,2,1,2,10,2,9.6839,74497.0465,1,0,Black,M,White,M,White,F,0,0,1,0,One-step,Neg Action
data_13,2,8,4,10,1,2,1,8,2,4.0853,74507.2882,0,0,Black,M,Asian,F,White,F,0,0,0,0,Two-step,Pos Action
data_13,3,3,14,4,2,3,2,10,1,4.5454,74511.936,0,1,White,M,White,F,Asian,F,1,0,0,0,One-versus-two-step,Neg Action
data_13,4,13,9,14,2,3,3,3,2,6.23,74517.0485,1,1,Black,M,White,F,White,F,0,0,0,0,One-versus-two-step,Friendship
data_13,5,8,6,9,1,1,1,5,1,3.5725,74523.8044,1,1,Black,M,Hispanic,M,White,F,0,0,1,0,One-step,Pos Action
data_13,6,9,13,8,2,3,1,9,1,5.9706,74527.9044,0,0,White,F,Black,M,Black,M,0,0,0,0,One-versus-two-step,Pos Action
data_13,7,14,3,13,1,3,3,3,1,2.7703,74534.3946,1,1,White,F,White,M,Black,M,1,0,0,0,One-versus-two-step,Friendship
data_13,8,14,15,13,1,1,1,6,2,3.4658,74537.6979,0,0,White,F,White,F,Black,M,1,0,1,0,One-step,Pos Action
data_13,9,14,3,13,2,3,2,14,1,5.2339,74541.6816,0,1,White,F,White,M,Black,M,1,0,0,0,One-versus-two-step,Neg Action
data_13,10,13,9,15,2,2,2,12,1,3.5682,74547.4415,0,1,Black,M,White,F,White,F,0,0,0,0,Two-step,Neg Action
data_13,11,8,4,9,1,3,4,4,2,5.4991,74551.5415,0,0,Black,M,Asian,F,White,F,0,0,0,0,One-versus-two-step,Similarity
data_13,12,14,3,11,1,2,4,4,1,4.6706,74557.567,1,1,White,F,White,M,Asian,M,1,0,0,0,Two-step,Similarity
data_13,13,13,9,14,2,3,4,4,2,3.9251,74562.7626,1,1,Black,M,White,F,White,F,0,0,0,0,One-versus-two-step,Similarity
data_13,14,13,9,14,2,3,2,13,1,4.2463,74567.2111,0,1,Black,M,White,F,White,F,0,0,0,0,One-versus-two-step,Neg Action
data_13,15,3,14,6,1,2,2,11,1,4.7898,74571.9751,1,0,White,M,White,F,Hispanic,M,1,0,0,1,Two-step,Neg Action
data_13,16,8,4,9,1,3,3,3,2,3.1314,74577.2868,0,0,Black,M,Asian,F,White,F,0,0,0,0,One-versus-two-step,Friendship
data_13,17,13,11,14,1,1,1,7,1,2.1591,74580.9386,1,1,Black,M,Asian,M,White,F,0,0,1,0,One-step,Pos Action
data_13,18,3,1,4,1,1,4,4,2,3.2128,74583.6277,0,0,White,M,Asian,F,Asian,F,0,0,0,0,One-step,Similarity
data_13,19,13,9,2,2,2,3,3,2,5.288,74587.3625,1,1,Black,M,White,F,White,M,0,0,0,1,Two-step,Friendship
data_13,20,13,9,14,2,3,1,8,2,2.3304,74593.1722,1,1,Black,M,White,F,White,F,0,0,0,0,One-versus-two-step,Pos Action
data_13,21,14,3,10,1,2,2,10,2,7.9563,74596.0272,0,1,White,F,White,M,White,F,1,1,0,1,Two-step,Neg Action
data_13,22,8,4,9,2,3,2,13,2,3.3163,74604.5094,1,0,Black,M,Asian,F,White,F,0,0,0,0,One-versus-two-step,Neg Action
data_13,23,13,10,14,2,1,3,3,2,2.5209,74608.3438,1,1,Black,M,White,F,White,F,0,0,0,0,One-step,Friendship
data_13,24,14,1,13,1,1,4,4,1,3.3268,74611.3981,1,1,White,F,Asian,F,Black,M,0,0,1,0,One-step,Similarity
data_13,25,3,14,6,2,2,3,3,1,3.7857,74615.2491,0,0,White,M,White,F,Hispanic,M,1,0,0,1,Two-step,Friendship
data_13,26,4,8,2,1,2,2,12,2,3.1053,74619.5649,0,1,Asian,F,Black,M,White,M,0,0,0,0,Two-step,Neg Action
data_13,27,14,3,12,1,2,1,6,2,2.9182,74623.2001,0,0,White,F,White,M,White,M,1,1,0,0,Two-step,Pos Action
data_13,28,14,3,13,2,3,4,4,2,3.3138,74626.6361,1,1,White,F,White,M,Black,M,1,0,0,0,One-versus-two-step,Similarity
data_13,29,9,13,7,2,2,4,4,2,3.8463,74630.4705,1,1,White,F,Black,M,White,F,0,1,0,1,Two-step,Similarity
data_13,30,4,8,3,2,3,4,4,2,4.9595,74634.8361,1,1,Asian,F,Black,M,White,M,0,0,0,0,One-versus-two-step,Similarity
data_13,31,13,9,1,2,2,1,6,2,3.572,74640.3138,1,1,Black,M,White,F,Asian,F,0,0,0,0,Two-step,Pos Action
data_13,32,8,4,12,2,2,3,3,1,3.6895,74644.4138,0,0,Black,M,Asian,F,White,M,0,0,0,1,Two-step,Friendship
data_13,33,9,13,8,1,3,4,4,2,3.4633,74648.63,0,0,White,F,Black,M,Black,M,0,0,0,0,One-versus-two-step,Similarity
data_13,34,9,13,8,1,3,2,10,1,3.5073,74652.6137,1,0,White,F,Black,M,Black,M,0,0,0,0,One-versus-two-step,Neg Action
data_13,35,8,6,9,1,1,3,3,2,2.7782,74656.6473,0,0,Black,M,Hispanic,M,White,F,0,0,1,0,One-step,Friendship
data_13,36,14,3,11,1,2,3,3,1,2.6054,74659.9506,1,1,White,F,White,M,Asian,M,1,0,0,0,Two-step,Friendship
data_13,37,3,14,6,2,2,4,4,1,3.0186,74663.0878,0,0,White,M,White,F,Hispanic,M,1,0,0,1,Two-step,Similarity
data_13,38,4,8,1,2,2,4,4,1,3.5438,74666.6234,0,0,Asian,F,Black,M,Asian,F,0,1,0,1,Two-step,Similarity
data_13,39,14,3,13,1,3,1,8,1,2.7029,74670.6902,1,1,White,F,White,M,Black,M,1,0,0,0,One-versus-two-step,Pos Action
data_13,40,14,2,13,1,1,2,13,2,2.6433,74673.9105,0,1,White,F,White,M,Black,M,1,0,0,0,One-step,Neg Action
data_13,41,4,6,3,2,1,4,4,1,3.1985,74677.0809,0,0,Asian,F,Hispanic,M,White,M,0,0,0,0,One-step,Similarity
data_13,42,4,6,3,1,1,2,2,2,3.1126,74680.7991,0,1,Asian,F,Hispanic,M,White,M,0,0,0,0,One-step,Neg Action
data_13,43,9,12,8,2,1,2,13,2,3.8142,74684.4343,1,0,White,F,White,M,Black,M,1,0,0,0,One-step,Neg Action
data_13,44,9,13,7,2,2,1,1,2,3.4027,74688.7667,1,1,White,F,Black,M,White,F,0,1,0,1,Two-step,Pos Action
data_13,45,8,5,9,2,1,4,4,1,4.0386,74692.7007,0,0,Black,M,Black,F,White,F,1,0,0,0,One-step,Similarity
data_13,46,3,14,5,2,2,1,1,1,4.3358,74697.2655,0,0,White,M,White,F,Black,F,1,0,0,0,Two-step,Pos Action
data_13,47,9,13,5,1,2,3,3,2,2.6164,74702.129,0,0,White,F,Black,M,Black,F,0,0,0,1,Two-step,Friendship
data_13,48,3,2,4,1,1,2,10,2,3.0517,74705.2662,0,1,White,M,White,M,Asian,F,1,0,1,0,One-step,Neg Action
data_13,49,8,4,10,1,2,2,10,1,3.0908,74708.8351,1,0,Black,M,Asian,F,White,F,0,0,0,0,Two-step,Neg Action
data_13,50,9,12,8,2,1,3,3,2,2.705,74712.4537,1,1,White,F,White,M,Black,M,1,0,0,0,One-step,Friendship
data_13,51,4,8,2,1,2,1,5,2,3.0434,74715.6905,0,0,Asian,F,Black,M,White,M,0,0,0,0,Two-step,Pos Action
data_13,52,4,7,3,1,1,1,7,2,3.2502,74719.2593,0,0,Asian,F,White,F,White,M,0,0,1,0,One-step,Pos Action
data_13,53,14,15,13,2,1,3,3,1,2.2829,74723.0273,0,0,White,F,White,F,Black,M,1,0,1,0,One-step,Friendship
data_13,54,4,8,1,1,2,3,3,2,6.5027,74725.8326,0,0,Asian,F,Black,M,Asian,F,0,1,0,1,Two-step,Friendship
data_13,55,13,9,15,1,2,4,4,2,3.2938,74732.854,0,0,Black,M,White,F,White,F,0,0,0,0,Two-step,Similarity
data_13,56,9,11,8,1,1,1,6,1,5.621,74736.672,1,1,White,F,Asian,M,Black,M,0,0,0,0,One-step,Pos Action
data_13,57,9,11,8,1,1,4,4,2,4.7966,74742.8135,0,0,White,F,Asian,M,Black,M,0,0,0,0,One-step,Similarity
data_13,58,8,4,9,2,3,1,1,1,3.5161,74748.1419,0,0,Black,M,Asian,F,White,F,0,0,0,0,One-versus-two-step,Pos Action
data_13,59,9,13,5,2,2,2,12,1,2.0989,74752.1754,0,1,White,F,Black,M,Black,F,0,0,0,1,Two-step,Neg Action
data_13,60,3,14,4,1,3,1,6,2,3.677,74754.7981,0,0,White,M,White,F,Asian,F,1,0,0,0,One-versus-two-step,Pos Action
data_13,61,3,14,4,1,3,3,3,2,2.5965,74758.9977,0,0,White,M,White,F,Asian,F,1,0,0,0,One-versus-two-step,Friendship
data_13,62,4,8,3,2,3,2,10,1,3.111,74762.1183,0,1,Asian,F,Black,M,White,M,0,0,0,0,One-versus-two-step,Neg Action
data_13,63,4,8,3,1,3,3,3,2,2.5485,74765.7535,0,0,Asian,F,Black,M,White,M,0,0,0,0,One-versus-two-step,Friendship
data_13,64,3,2,4,1,1,3,3,2,1.9837,74768.8244,0,0,White,M,White,M,Asian,F,1,0,1,0,One-step,Friendship
data_13,65,8,4,12,1,2,4,4,1,3.5456,74771.3309,1,1,Black,M,Asian,F,White,M,0,0,0,1,Two-step,Similarity
data_13,66,3,14,4,1,3,4,4,2,2.9925,74775.3977,0,0,White,M,White,F,Asian,F,1,0,0,0,One-versus-two-step,Similarity
data_13,67,4,6,3,1,1,3,3,1,3.302,74778.9167,1,1,Asian,F,Hispanic,M,White,M,0,0,0,0,One-step,Friendship
data_13,68,9,13,8,2,3,3,3,1,2.9452,74782.7511,0,0,White,F,Black,M,Black,M,0,0,0,0,One-versus-two-step,Friendship
data_13,69,8,5,9,1,1,2,2,1,4.2145,74786.2203,1,0,Black,M,Black,F,White,F,1,0,0,0,One-step,Neg Action
data_13,70,4,8,3,2,3,1,7,1,3.3421,74790.9677,0,0,Asian,F,Black,M,White,M,0,0,0,0,One-versus-two-step,Pos Action
data_13,71,3,15,4,2,1,1,7,2,3.4946,74794.8352,1,1,White,M,White,F,Asian,F,1,0,0,0,One-step,Pos Action
data_13,72,13,10,14,2,1,4,4,2,2.9997,74798.8522,1,1,Black,M,White,F,White,F,0,0,0,0,One-step,Similarity
data_14,1,3,14,4,2,3,1,6,2,19.5427,4798.5514,1,1,Hispanic,M,Asian,F,Black,F,0,0,0,0,One-versus-two-step,Pos Action
data_14,2,3,14,4,1,3,4,4,2,10.4478,4818.6275,0,0,Hispanic,M,Asian,F,Black,F,0,0,0,0,One-versus-two-step,Similarity
data_14,3,8,4,10,2,2,3,3,1,4.5557,4829.6161,0,0,White,M,Black,F,White,F,0,1,0,0,Two-step,Friendship
data_14,4,3,1,4,1,1,2,13,2,11.187,4834.7018,0,1,Hispanic,M,White,M,Black,F,0,0,1,0,One-step,Neg Action
data_14,5,3,14,6,1,2,4,4,1,11.8682,4846.424,1,1,Hispanic,M,Asian,F,White,F,0,0,0,0,Two-step,Similarity
data_14,6,3,1,4,2,1,4,4,2,4.831,4858.8133,1,1,Hispanic,M,White,M,Black,F,0,0,1,0,One-step,Similarity
data_14,7,13,10,14,1,1,1,8,1,11.2059,4864.1658,1,1,White,F,White,F,Asian,F,1,0,1,1,One-step,Pos Action
data_14,8,13,9,15,2,2,2,11,1,7.6592,4875.9047,0,1,White,F,Black,M,White,F,0,1,0,1,Two-step,Neg Action
data_14,9,4,7,3,2,1,4,4,2,3.5685,4884.0919,1,1,Black,F,Asian,F,Hispanic,M,0,0,1,0,One-step,Similarity
data_14,10,4,8,3,1,3,3,3,2,9.6021,4888.1938,0,0,Black,F,White,M,Hispanic,M,0,0,0,0,One-versus-two-step,Friendship
data_14,11,9,13,7,2,2,2,11,2,5.2161,4898.3319,1,0,Black,M,White,F,Asian,F,0,0,0,0,Two-step,Neg Action
data_14,12,13,10,14,1,1,3,3,1,7.7432,4904.0847,1,1,White,F,White,F,Asian,F,1,0,1,1,One-step,Friendship
data_14,13,4,8,3,1,3,4,4,2,7.0488,4912.3553,0,0,Black,F,White,M,Hispanic,M,0,0,0,0,One-versus-two-step,Similarity
data_14,14,14,3,13,1,3,3,3,2,8.9827,4919.9256,0,0,Asian,F,Hispanic,M,White,F,0,0,0,1,One-versus-two-step,Friendship
data_14,15,9,13,6,2,2,1,9,1,4.0386,4929.43,0,0,Black,M,White,F,White,F,0,0,0,0,Two-step,Pos Action
data_14,16,9,13,8,2,3,1,8,2,6.3492,4933.9989,1,1,Black,M,White,F,White,M,0,0,0,1,One-versus-two-step,Pos Action
data_14,17,9,13,6,1,2,3,3,1,4.3277,4940.8688,1,1,Black,M,White,F,White,F,0,0,0,0,Two-step,Friendship
data_14,18,8,4,11,2,2,2,12,1,5.7874,4945.7211,0,1,White,M,Black,F,Asian,M,0,0,0,1,Two-step,Neg Action
data_14,19,3,14,6,2,2,2,10,1,3.9149,4952.0408,0,1,Hispanic,M,Asian,F,White,F,0,0,0,0,Two-step,Neg Action
data_14,20,3,14,4,1,3,3,3,2,3.3838,4956.4761,0,0,Hispanic,M,Asian,F,Black,F,0,0,0,0,One-versus-two-step,Friendship
data_14,21,8,4,9,2,3,4,4,1,4.026,4960.3946,0,0,White,M,Black,F,Black,M,0,0,0,1,One-versus-two-step,Similarity
data_14,22,13,9,2,1,2,1,9,2,11.369,4964.9468,0,0,White,F,Black,M,White,F,0,1,0,1,Two-step,Pos Action
data_14,23,14,2,13,1,1,2,10,2,6.0561,4976.8525,0,1,Asian,F,White,F,White,F,0,0,1,1,One-step,Neg Action
data_14,24,13,12,14,1,1,2,13,2,3.925,4983.439,0,1,White,F,Black,M,Asian,F,0,0,0,1,One-step,Neg Action
data_14,25,8,4,9,2,3,1,8,2,4.8008,4987.8911,1,1,White,M,Black,F,Black,M,0,0,0,1,One-versus-two-step,Pos Action
data_14,26,9,11,8,1,1,2,12,1,10.9773,4993.227,1,0,Black,M,Asian,M,White,M,0,0,1,1,One-step,Neg Action
data_14,27,8,5,9,2,1,2,13,1,4.4398,5004.7324,0,1,White,M,White,M,Black,M,1,0,1,1,One-step,Neg Action
data_14,28,9,11,8,1,1,4,4,1,6.047,5009.7014,1,1,Black,M,Asian,M,White,M,0,0,1,1,One-step,Similarity
data_14,29,3,1,4,1,1,3,3,2,7.4374,5016.2712,0,0,Hispanic,M,White,M,Black,F,0,0,1,0,One-step,Friendship
data_14,30,14,3,13,2,3,1,7,1,6.7786,5024.2417,0,0,Asian,F,Hispanic,M,White,F,0,0,0,1,One-versus-two-step,Pos Action
data_14,31,13,9,15,2,2,4,4,1,6.8675,5031.5452,0,0,White,F,Black,M,White,F,0,1,0,1,Two-step,Similarity
data_14,32,9,11,8,1,1,1,1,1,4.4796,5038.9487,1,1,Black,M,Asian,M,White,M,0,0,1,1,One-step,Pos Action
data_14,33,9,10,8,2,1,3,3,2,7.4936,5043.951,1,1,Black,M,White,F,White,M,0,0,0,1,One-step,Friendship
data_14,34,14,3,13,2,3,4,4,1,6.6166,5051.9715,0,0,Asian,F,Hispanic,M,White,F,0,0,0,1,One-versus-two-step,Similarity
data_14,35,8,7,9,2,1,4,4,1,6.6562,5059.1082,0,0,White,M,Asian,F,Black,M,0,0,0,1,One-step,Similarity
data_14,36,3,14,7,2,2,3,3,1,7.741,5066.2949,0,0,Hispanic,M,Asian,F,Asian,F,0,0,0,0,Two-step,Friendship
data_14,37,3,14,4,2,3,2,13,1,13.9183,5074.5655,0,1,Hispanic,M,Asian,F,Black,F,0,0,0,0,One-versus-two-step,Neg Action
data_14,38,4,6,3,1,1,2,11,1,7.6465,5089.0057,1,0,Black,F,White,F,Hispanic,M,0,0,1,0,One-step,Neg Action
data_14,39,13,9,14,2,3,1,8,1,5.6681,5097.1763,0,0,White,F,Black,M,Asian,F,0,0,0,1,One-versus-two-step,Pos Action
data_14,40,4,6,3,2,1,3,3,2,6.6648,5103.3792,1,1,Black,F,White,F,Hispanic,M,0,0,1,0,One-step,Friendship
data_14,41,13,9,2,2,2,3,3,2,7.5194,5110.5659,1,1,White,F,Black,M,White,F,0,1,0,1,Two-step,Friendship
data_14,42,4,8,1,2,2,3,3,1,3.0131,5118.6198,0,0,Black,F,White,M,White,M,0,0,0,0,Two-step,Friendship
data_14,43,9,13,8,2,3,2,13,2,6.4746,5122.1548,1,0,Black,M,White,F,White,M,0,0,0,1,One-versus-two-step,Neg Action
data_14,44,4,8,2,2,2,1,9,1,4.2563,5129.1581,0,0,Black,F,White,M,White,F,0,0,0,1,Two-step,Pos Action
data_14,45,4,8,3,2,3,1,5,1,4.6284,5133.9437,0,0,Black,F,White,M,Hispanic,M,0,0,0,0,One-versus-two-step,Pos Action
data_14,46,14,3,10,1,2,3,3,2,6.0484,5139.0961,0,0,Asian,F,Hispanic,M,White,F,0,0,0,1,Two-step,Friendship
data_14,47,13,11,14,1,1,4,4,2,3.476,5145.6659,0,0,White,F,Asian,M,Asian,F,0,0,0,1,One-step,Similarity
data_14,48,3,2,4,1,1,1,7,2,6.5387,5149.6678,0,0,Hispanic,M,White,F,Black,F,0,0,0,0,One-step,Pos Action
data_14,49,8,4,9,2,3,3,3,1,4.6287,5156.7378,0,0,White,M,Black,F,Black,M,0,0,0,1,One-versus-two-step,Friendship
data_14,50,14,15,13,1,1,4,4,1,9.0504,5161.8902,1,1,Asian,F,White,F,White,F,0,0,1,1,One-step,Similarity
data_14,51,8,4,9,2,3,2,13,2,3.7758,5171.4615,1,0,White,M,Black,F,Black,M,0,0,0,1,One-versus-two-step,Neg Action
data_14,52,9,13,8,1,3,4,4,2,9.3922,5175.7635,0,0,Black,M,White,F,White,M,0,0,0,1,One-versus-two-step,Similarity
data_14,53,14,3,12,1,2,1,1,1,10.6503,5185.6849,1,1,Asian,F,Hispanic,M,Black,M,0,0,0,0,Two-step,Pos Action
data_14,54,8,4,12,2,2,1,5,2,6.2034,5196.8568,1,1,White,M,Black,F,Black,M,0,0,0,1,Two-step,Pos Action
data_14,55,13,9,14,2,3,2,11,1,4.8696,5203.5934,0,1,White,F,Black,M,Asian,F,0,0,0,1,One-versus-two-step,Neg Action
data_14,56,14,3,12,1,2,4,4,2,11.3964,5208.9959,0,0,Asian,F,Hispanic,M,Black,M,0,0,0,0,Two-step,Similarity
data_14,57,9,13,7,1,2,4,4,2,5.2909,5220.9183,0,0,Black,M,White,F,Asian,F,0,0,0,0,Two-step,Similarity
data_14,58,13,9,14,2,3,4,4,1,3.5745,5226.7377,0,0,White,F,Black,M,Asian,F,0,0,0,1,One-versus-two-step,Similarity
data_14,59,8,7,9,1,1,3,3,2,3.1932,5230.8396,0,0,White,M,Asian,F,Black,M,0,0,0,1,One-step,Friendship
data_14,60,13,9,14,1,3,3,3,2,3.3345,5234.5581,0,0,White,F,Black,M,Asian,F,0,0,0,1,One-versus-two-step,Friendship
data_14,61,14,15,13,2,1,1,9,1,5.0177,5238.4265,0,0,Asian,F,White,F,White,F,0,0,1,1,One-step,Pos Action
data_14,62,14,3,13,2,3,2,14,2,7.1714,5243.9792,1,0,Asian,F,Hispanic,M,White,F,0,0,0,1,One-versus-two-step,Neg Action
data_14,63,14,3,11,2,2,2,11,1,4.8114,5251.6828,0,1,Asian,F,Hispanic,M,Asian,M,0,1,0,0,Two-step,Neg Action
data_14,64,4,8,1,1,2,4,4,1,17.4914,5257.0187,1,1,Black,F,White,M,White,M,0,0,0,0,Two-step,Similarity
data_14,65,4,8,1,1,2,2,2,2,7.1662,5275.0439,0,1,Black,F,White,M,White,M,0,0,0,0,Two-step,Neg Action
data_14,66,4,8,3,1,3,2,2,2,3.718,5282.7309,0,1,Black,F,White,M,Hispanic,M,0,0,0,0,One-versus-two-step,Neg Action
data_14,67,14,15,13,1,1,3,3,2,6.1877,5286.9829,0,0,Asian,F,White,F,White,F,0,0,1,1,One-step,Friendship
data_14,68,8,4,11,2,2,4,4,1,7.0513,5293.7027,0,0,White,M,Black,F,Asian,M,0,0,0,1,Two-step,Similarity
data_14,69,8,6,9,1,1,1,5,2,12.1283,5301.2896,0,0,White,M,White,F,Black,M,1,0,0,1,One-step,Pos Action
data_14,70,3,14,6,2,2,1,9,1,5.3039,5313.9456,0,0,Hispanic,M,Asian,F,White,F,0,0,0,0,Two-step,Pos Action
data_14,71,9,13,8,2,3,3,3,1,5.0119,5319.7818,0,0,Black,M,White,F,White,M,0,0,0,1,One-versus-two-step,Friendship
data_14,72,4,5,3,1,1,1,5,2,4.0124,5325.3177,0,0,Black,F,White,M,Hispanic,M,0,0,0,0,One-step,Pos Action
data_15,1,3,14,5,1,2,1,8,1,15.3072,7782.9313,1,1,Black,M,White,F,White,F,0,0,0,0,Two-step,Pos Action
data_15,2,3,14,7,2,2,3,3,2,4.9376,7798.7722,1,1,Black,M,White,F,White,F,0,0,0,0,Two-step,Friendship
data_15,3,13,9,2,2,2,3,3,2,5.4049,7804.2414,1,1,Black,F,Asian,M,White,M,0,0,0,0,Two-step,Friendship
data_15,4,4,8,15,2,2,4,4,2,5.3087,7810.1775,1,1,Asian,F,White,M,White,F,0,0,0,1,Two-step,Similarity
data_15,5,4,8,15,2,2,3,3,2,6.2561,7816.0137,1,1,Asian,F,White,M,White,F,0,0,0,1,Two-step,Friendship
data_15,6,14,2,13,2,1,4,4,1,8.1256,7822.8003,0,0,White,F,White,M,Black,F,1,0,0,1,One-step,Similarity
data_15,7,13,11,14,1,1,3,3,2,7.152,7831.4544,0,0,Black,F,Asian,F,White,F,0,0,1,1,One-step,Friendship
data_15,8,9,10,8,1,1,4,4,2,6.3365,7839.1413,0,0,Asian,M,White,F,White,M,0,0,0,1,One-step,Similarity
data_15,9,13,9,15,2,2,2,10,1,4.1712,7846.0113,0,1,Black,F,Asian,M,White,F,0,0,0,1,Two-step,Neg Action
data_15,10,4,8,2,2,2,1,6,2,6.0925,7850.7135,1,1,Asian,F,White,M,White,M,0,0,0,0,Two-step,Pos Action
data_15,11,9,13,7,1,2,3,3,1,2.8888,7857.3333,1,1,Asian,M,Black,F,White,F,0,0,0,0,Two-step,Friendship
data_15,12,3,14,6,1,2,4,4,2,3.9665,7860.7516,0,0,Black,M,White,F,Black,M,0,1,0,1,Two-step,Similarity
data_15,13,14,3,11,2,2,3,3,1,3.2889,7865.2537,0,0,White,F,Black,M,Asian,F,0,0,0,1,Two-step,Friendship
data_15,14,14,3,13,2,3,3,3,1,3.0381,7869.0722,0,0,White,F,Black,M,Black,F,0,0,0,1,One-versus-two-step,Friendship
data_15,15,8,4,12,2,2,4,4,1,4.3091,7872.6405,0,0,White,M,Asian,F,Hispanic,M,0,0,0,1,Two-step,Similarity
data_15,16,4,8,3,2,3,2,12,1,4.0263,7877.4761,0,1,Asian,F,White,M,Black,M,0,0,0,0,One-versus-two-step,Neg Action
data_15,17,8,4,10,1,2,2,11,2,7.586,7882.0283,0,1,White,M,Asian,F,White,F,0,1,0,0,Two-step,Neg Action
data_15,18,13,9,14,2,3,2,11,1,4.8497,7890.1489,0,1,Black,F,Asian,M,White,F,0,0,0,1,One-versus-two-step,Neg Action
data_15,19,3,1,4,1,1,2,10,2,5.8553,7895.5347,0,1,Black,M,White,M,Asian,F,0,0,1,0,One-step,Neg Action
data_15,20,3,14,4,1,3,1,5,1,8.4138,7901.9211,1,1,Black,M,White,F,Asian,F,0,0,0,0,One-versus-two-step,Pos Action
data_15,21,8,7,9,2,1,3,3,1,3.0119,7910.8586,0,0,White,M,White,F,Asian,M,1,0,0,1,One-step,Friendship
data_15,22,4,5,3,2,1,1,1,2,2.8397,7914.3936,1,1,Asian,F,White,F,Black,M,0,0,1,0,One-step,Pos Action
data_15,23,13,9,14,1,3,3,3,1,4.8077,7917.762,1,1,Black,F,Asian,M,White,F,0,0,0,1,One-versus-two-step,Friendship
data_15,24,3,14,4,1,3,2,2,1,2.8788,7923.0978,1,0,Black,M,White,F,Asian,F,0,0,0,0,One-versus-two-step,Neg Action
data_15,25,4,8,2,1,2,2,11,2,9.0214,7926.4994,0,1,Asian,F,White,M,White,M,0,0,0,0,Two-step,Neg Action
data_15,26,9,13,6,2,2,2,11,2,4.0387,7936.0539,1,0,Asian,M,Black,F,Black,M,0,0,0,1,Two-step,Neg Action
data_15,27,3,14,4,2,3,4,4,1,3.0687,7940.6227,0,0,Black,M,White,F,Asian,F,0,0,0,0,One-versus-two-step,Similarity
data_15,28,3,1,4,1,1,4,4,1,5.075,7944.2244,1,1,Black,M,White,M,Asian,F,0,0,1,0,One-step,Similarity
data_15,29,8,4,12,1,2,1,8,2,3.4705,7949.8271,0,0,White,M,Asian,F,Hispanic,M,0,0,0,1,Two-step,Pos Action
data_15,30,8,4,9,1,3,1,8,2,4.0911,7953.829,0,0,White,M,Asian,F,Asian,M,0,0,0,1,One-versus-two-step,Pos Action
data_15,31,9,13,8,1,3,1,8,2,2.4878,7958.4479,0,0,Asian,M,Black,F,White,M,0,0,0,1,One-versus-two-step,Pos Action
data_15,32,4,8,3,1,3,1,9,1,3.3601,7961.466,1,1,Asian,F,White,M,Black,M,0,0,0,0,One-versus-two-step,Pos Action
data_15,33,4,7,3,1,1,2,12,2,4.1667,7965.3512,0,1,Asian,F,White,F,Black,M,0,0,1,0,One-step,Neg Action
data_15,34,3,15,4,1,1,1,5,2,3.1403,7970.0534,0,0,Black,M,White,F,Asian,F,0,0,0,0,One-step,Pos Action
data_15,35,4,6,3,1,1,3,3,2,4.3427,7973.7218,0,0,Asian,F,Black,M,Black,M,0,0,0,0,One-step,Friendship
data_15,36,13,9,2,2,2,4,4,2,3.4712,7978.5908,1,1,Black,F,Asian,M,White,M,0,0,0,0,Two-step,Similarity
data_15,37,8,4,11,1,2,3,3,1,2.7917,7982.5927,1,1,White,M,Asian,F,Asian,F,0,0,0,0,Two-step,Friendship
data_15,38,3,14,6,2,2,2,11,2,2.6702,7985.9109,1,0,Black,M,White,F,Black,M,0,1,0,1,Two-step,Neg Action
data_15,39,9,13,6,1,2,4,4,1,22.4692,7989.1124,1,1,Asian,M,Black,F,Black,M,0,0,0,1,Two-step,Similarity
data_15,40,13,9,15,1,2,1,5,1,5.7782,8012.1067,1,1,Black,F,Asian,M,White,F,0,0,0,1,Two-step,Pos Action
data_15,41,14,3,13,1,3,1,1,2,3.5074,8018.4096,0,0,White,F,Black,M,Black,F,0,0,0,1,One-versus-two-step,Pos Action
data_15,42,13,9,14,2,3,1,5,2,10.768,8022.4448,1,1,Black,F,Asian,M,White,F,0,0,0,1,One-versus-two-step,Pos Action
data_15,43,14,3,13,2,3,2,2,2,4.6827,8033.7502,1,0,White,F,Black,M,Black,F,0,0,0,1,One-versus-two-step,Neg Action
data_15,44,14,15,13,2,1,1,7,1,6.4647,8038.9694,0,0,White,F,White,F,Black,F,1,0,1,1,One-step,Pos Action
data_15,45,4,8,3,2,3,4,4,2,7.0868,8045.956,1,1,Asian,F,White,M,Black,M,0,0,0,0,One-versus-two-step,Similarity
data_15,46,13,12,14,1,1,1,9,1,6.0903,8053.5763,1,1,Black,F,Hispanic,M,White,F,0,0,0,1,One-step,Pos Action
data_15,47,9,11,8,1,1,3,3,2,4.0619,8060.1961,0,0,Asian,M,Asian,F,White,M,1,0,0,1,One-step,Friendship
data_15,48,9,13,8,1,3,3,3,2,1.565,8064.7816,0,0,Asian,M,Black,F,White,M,0,0,0,1,One-versus-two-step,Friendship
data_15,49,8,5,9,2,1,1,5,1,12.7518,8066.8827,0,0,White,M,White,F,Asian,M,1,0,0,1,One-step,Pos Action
data_15,50,14,2,13,1,1,3,3,2,3.4547,8080.1556,0,0,White,F,White,M,Black,F,1,0,0,1,One-step,Friendship
data_15,51,14,1,13,1,1,2,12,1,2.5256,8084.1407,1,0,White,F,White,M,Black,F,1,0,0,1,One-step,Neg Action
data_15,52,9,11,8,2,1,2,2,2,2.3704,8087.1922,1,0,Asian,M,Asian,F,White,M,1,0,0,1,One-step,Neg Action
data_15,53,9,13,8,2,3,2,10,2,2.5651,8090.0936,1,0,Asian,M,Black,F,White,M,0,0,0,1,One-versus-two-step,Neg Action
data_15,54,9,13,7,2,2,1,1,2,2.9749,8093.1951,1,1,Asian,M,Black,F,White,F,0,0,0,0,Two-step,Pos Action
data_15,55,8,4,9,2,3,4,4,1,2.7538,8096.6968,0,0,White,M,Asian,F,Asian,M,0,0,0,1,One-versus-two-step,Similarity
data_15,56,14,3,10,1,2,2,12,1,6.9649,8099.9817,1,0,White,F,Black,M,White,F,0,1,0,1,Two-step,Neg Action
data_15,57,14,3,12,2,2,4,4,1,17.5333,8107.4685,0,0,White,F,Black,M,Hispanic,M,0,0,0,0,Two-step,Similarity
data_15,58,8,4,9,1,3,3,3,2,2.3393,8125.5271,0,0,White,M,Asian,F,Asian,M,0,0,0,1,One-versus-two-step,Friendship
data_15,59,8,7,9,2,1,2,12,2,3.3115,8128.3951,1,0,White,M,White,F,Asian,M,1,0,0,1,One-step,Neg Action
data_15,60,13,10,14,2,1,4,4,1,5.8524,8132.2303,0,0,Black,F,White,F,White,F,0,0,1,1,One-step,Similarity
data_15,61,3,2,4,2,1,3,3,2,8.3854,8138.6167,1,1,Black,M,White,M,Asian,F,0,0,1,0,One-step,Friendship
data_15,62,8,7,9,2,1,4,4,1,2.2326,8147.5376,0,0,White,M,White,F,Asian,M,1,0,0,1,One-step,Similarity
data_15,63,4,6,3,1,1,4,4,2,3.9771,8150.3055,0,0,Asian,F,Black,M,Black,M,0,0,0,0,One-step,Similarity
data_15,64,3,14,4,2,3,3,3,1,2.4907,8154.8077,0,0,Black,M,White,F,Asian,F,0,0,0,0,One-versus-two-step,Friendship
data_15,65,13,9,14,2,3,4,4,2,2.3287,8157.8258,1,1,Black,F,Asian,M,White,F,0,0,0,1,One-versus-two-step,Similarity
data_15,66,4,8,3,1,3,3,3,1,3.8288,8160.6771,1,1,Asian,F,White,M,Black,M,0,0,0,0,One-versus-two-step,Friendship
data_15,67,9,12,8,2,1,1,6,2,3.0297,8165.0292,1,1,Asian,M,Hispanic,M,White,M,0,0,1,1,One-step,Pos Action
data_15,68,9,13,8,2,3,4,4,1,3.2449,8168.5809,0,0,Asian,M,Black,F,White,M,0,0,0,1,One-versus-two-step,Similarity
data_15,69,8,4,9,2,3,2,2,2,3.7654,8172.3493,1,0,White,M,Asian,F,Asian,M,0,0,0,1,One-versus-two-step,Neg Action
data_15,70,14,3,13,1,3,4,4,2,3.7833,8176.6513,0,0,White,F,Black,M,Black,F,0,0,0,1,One-versus-two-step,Similarity
data_15,71,14,3,10,2,2,1,6,1,6.624,8180.97,0,0,White,F,Black,M,White,F,0,1,0,1,Two-step,Pos Action
data_15,72,13,12,14,1,1,2,13,2,10.8792,8188.1234,0,1,Black,F,Hispanic,M,White,F,0,0,0,1,One-step,Neg Action
data_16,1,3,2,4,1,1,1,1,1,5.7872,11466.5397,1,1,Asian,F,White,M,White,M,0,0,0,0,One-step,Pos Action
data_16,2,4,6,3,2,1,1,1,2,8.2416,11472.8594,1,1,White,M,Black,F,Asian,F,0,0,0,0,One-step,Pos Action
data_16,3,14,1,13,2,1,1,7,1,3.8143,11481.6302,0,0,White,F,Black,M,White,F,0,1,0,1,One-step,Pos Action
data_16,4,13,12,14,2,1,4,4,1,4.9554,11485.9656,0,0,White,F,Black,M,White,F,0,1,0,1,One-step,Similarity
data_16,5,14,3,13,2,3,4,4,1,3.602,11491.4515,0,0,White,F,Asian,F,White,F,0,1,1,1,One-versus-two-step,Similarity
data_16,6,8,4,10,1,2,3,3,2,3.4179,11495.5869,0,0,White,F,White,M,White,M,1,1,0,0,Two-step,Friendship
data_16,7,9,13,8,1,3,1,9,1,3.4493,11499.5387,1,1,Hispanic,M,White,F,White,F,0,0,0,0,One-versus-two-step,Pos Action
data_16,8,8,5,9,2,1,4,4,2,2.2396,11503.5239,1,1,White,F,White,F,Hispanic,M,1,0,1,0,One-step,Similarity
data_16,9,4,8,3,2,3,2,13,1,6.635,11506.2919,0,1,White,M,White,F,Asian,F,1,0,0,0,One-versus-two-step,Neg Action
data_16,10,4,8,2,1,2,4,4,2,2.8107,11513.4619,0,0,White,M,White,F,White,M,1,1,0,1,Two-step,Similarity
data_16,11,13,9,14,2,3,4,4,1,2.2755,11516.7969,0,0,White,F,Hispanic,M,White,F,0,1,0,1,One-versus-two-step,Similarity
data_16,12,3,2,4,2,1,4,4,2,3.7575,11519.5982,1,1,Asian,F,White,M,White,M,0,0,0,0,One-step,Similarity
data_16,13,14,3,12,2,2,1,8,1,8.3386,11523.8836,0,0,White,F,Asian,F,Black,M,0,0,1,0,Two-step,Pos Action
data_16,14,4,8,15,2,2,2,14,1,8.5814,11532.7545,0,1,White,M,White,F,Asian,M,1,0,0,1,Two-step,Neg Action
data_16,15,8,4,9,2,3,1,8,1,5.0726,11541.8586,0,0,White,F,White,M,Hispanic,M,1,0,0,0,One-versus-two-step,Pos Action
data_16,16,4,8,3,2,3,4,4,2,4.1178,11547.4614,1,1,White,M,White,F,Asian,F,1,0,0,0,One-versus-two-step,Similarity
data_16,17,3,14,6,2,2,2,12,2,4.1095,11552.1136,1,0,Asian,F,White,F,Black,F,0,0,1,1,Two-step,Neg Action
data_16,18,3,14,4,1,3,4,4,1,6.4451,11556.749100000001,1,1,Asian,F,White,F,White,M,0,0,1,0,One-versus-two-step,Similarity
data_16,19,8,4,9,2,3,4,4,1,3.7218,11563.7191,0,0,White,F,White,M,Hispanic,M,1,0,0,0,One-versus-two-step,Similarity
data_16,20,9,13,7,2,2,2,13,2,3.0874,11567.9711,1,0,Hispanic,M,White,F,Asian,F,0,0,0,0,Two-step,Neg Action
data_16,21,3,2,4,1,1,2,13,1,5.0289,11571.5896,1,0,Asian,F,White,M,White,M,0,0,0,0,One-step,Neg Action
data_16,22,14,3,13,2,3,3,3,1,3.2144,11577.1422,0,0,White,F,Asian,F,White,F,0,1,1,1,One-versus-two-step,Friendship
data_16,23,14,3,10,1,2,4,4,2,2.5831,11580.8773,0,0,White,F,Asian,F,White,M,0,1,1,0,Two-step,Similarity
data_16,24,4,5,3,2,1,3,3,2,9.8763,11583.9954,1,1,White,M,White,F,Asian,F,1,0,0,0,One-step,Friendship
data_16,25,9,11,8,1,1,2,10,1,4.2639,11594.4003,1,0,Hispanic,M,White,F,White,F,0,0,0,0,One-step,Neg Action
data_16,26,8,4,9,2,3,2,14,1,6.4735,11599.186,0,1,White,F,White,M,Hispanic,M,1,0,0,0,One-versus-two-step,Neg Action
data_16,27,13,11,14,2,1,3,3,2,9.6076,11606.1893,1,1,White,F,White,F,White,F,1,1,1,1,One-step,Friendship
data_16,28,13,10,14,1,1,2,2,2,7.3184,11616.3274,0,1,White,F,White,M,White,F,1,1,0,1,One-step,Neg Action
data_16,29,9,13,7,2,2,3,3,1,4.6499,11624.1811,0,0,Hispanic,M,White,F,Asian,F,0,0,0,0,Two-step,Friendship
data_16,30,9,11,8,1,1,3,3,1,6.1056,11629.3669,1,1,Hispanic,M,White,F,White,F,0,0,0,0,One-step,Friendship
data_16,31,13,9,14,1,3,1,5,2,5.2606,11636.0034,0,0,White,F,Hispanic,M,White,F,0,1,0,1,One-versus-two-step,Pos Action
data_16,32,8,4,9,2,3,3,3,1,3.1221,11641.7895,0,0,White,F,White,M,Hispanic,M,1,0,0,0,One-versus-two-step,Friendship
data_16,33,3,14,5,1,2,1,5,2,4.4051,11645.4412,0,0,Asian,F,White,F,White,F,0,0,1,1,Two-step,Pos Action
data_16,34,9,13,5,2,2,4,4,1,3.4148,11650.3768,0,0,Hispanic,M,White,F,White,F,0,0,0,0,Two-step,Similarity
data_16,35,8,4,11,2,2,1,9,1,13.8375,11654.3121,0,0,White,F,White,M,White,F,1,1,0,1,Two-step,Pos Action
data_16,36,9,13,8,1,3,2,13,1,2.2638,11668.6856,1,0,Hispanic,M,White,F,White,F,0,0,0,0,One-versus-two-step,Neg Action
data_16,37,9,13,8,2,3,4,4,1,4.4606,11671.4702,0,0,Hispanic,M,White,F,White,F,0,0,0,0,One-versus-two-step,Similarity
data_16,38,14,3,13,2,3,1,5,2,5.9536,11676.4559,1,1,White,F,Asian,F,White,F,0,1,1,1,One-versus-two-step,Pos Action
data_16,39,14,2,13,1,1,3,3,2,15.9047,11682.9423,0,0,White,F,White,M,White,F,1,1,0,1,One-step,Friendship
data_16,40,13,9,15,2,2,1,8,1,4.4627,11699.3835,0,0,White,F,Hispanic,M,Asian,M,0,0,0,0,Two-step,Pos Action
data_16,41,4,8,2,1,2,3,3,1,5.3309,11704.3692,1,1,White,M,White,F,White,M,1,1,0,1,Two-step,Friendship
data_16,42,9,13,8,2,3,3,3,1,5.4906,11710.2219,0,0,Hispanic,M,White,F,White,F,0,0,0,0,One-versus-two-step,Friendship
data_16,43,9,10,8,1,1,4,4,2,7.2466,11716.2414,0,0,Hispanic,M,White,M,White,F,0,0,1,0,One-step,Similarity
data_16,44,8,5,9,2,1,3,3,2,4.4942,11724.0118,1,1,White,F,White,F,Hispanic,M,1,0,1,0,One-step,Friendship
data_16,45,8,7,9,2,1,1,5,2,5.9472,11729.0309,1,1,White,F,Asian,F,Hispanic,M,0,0,1,0,One-step,Pos Action
data_16,46,4,5,3,2,1,2,14,1,8.134,11735.5006,0,1,White,M,White,F,Asian,F,1,0,0,0,One-step,Neg Action
data_16,47,13,9,2,1,2,3,3,2,2.9178,11744.1547,0,0,White,F,Hispanic,M,White,M,0,1,0,0,Two-step,Friendship
data_16,48,14,2,13,2,1,4,4,1,8.4839,11747.6063,0,0,White,F,White,M,White,F,1,1,0,1,One-step,Similarity
data_16,49,13,9,1,2,2,4,4,1,2.5031,11756.6106,0,0,White,F,Hispanic,M,Black,M,0,0,0,0,Two-step,Similarity
data_16,50,13,9,14,2,3,3,3,1,2.0205,11759.6454,0,0,White,F,Hispanic,M,White,F,0,1,0,1,One-versus-two-step,Friendship
data_16,51,14,3,11,1,2,3,3,2,3.7604,11762.1966,0,0,White,F,Asian,F,White,F,0,1,1,1,Two-step,Friendship
data_16,52,4,8,1,2,2,1,6,1,4.7915,11766.4819,0,0,White,M,White,F,Black,M,1,0,0,1,Two-step,Pos Action
data_16,53,8,5,9,2,1,2,12,1,2.6652,11771.8011,0,1,White,F,White,F,Hispanic,M,1,0,1,0,One-step,Neg Action
data_16,54,3,14,5,1,2,4,4,2,5.2281,11775.0026,0,0,Asian,F,White,F,White,F,0,0,1,1,Two-step,Similarity
data_16,55,4,8,3,2,3,3,3,1,4.9639,11780.7554,0,0,White,M,White,F,Asian,F,1,0,0,0,One-versus-two-step,Friendship
data_16,56,13,9,15,2,2,2,14,2,3.868,11786.2413,1,0,White,F,Hispanic,M,Asian,M,0,0,0,0,Two-step,Neg Action
data_16,57,9,13,7,2,2,1,1,2,11.2492,11790.6434,1,1,Hispanic,M,White,F,Asian,F,0,0,0,0,Two-step,Pos Action
data_16,58,3,2,4,2,1,3,3,2,5.9246,11802.4156,1,1,Asian,F,White,M,White,M,0,0,0,0,One-step,Friendship
data_16,59,4,7,3,1,1,4,4,1,4.0706,11808.8687,1,1,White,M,Asian,F,Asian,F,0,0,0,0,One-step,Similarity
data_16,60,9,11,8,1,1,1,5,1,3.8893,11813.4708,1,1,Hispanic,M,White,F,White,F,0,0,0,0,One-step,Pos Action
data_16,61,3,14,4,1,3,2,14,2,14.4969,11817.8895,0,1,Asian,F,White,F,White,M,0,0,1,0,One-versus-two-step,Neg Action
data_16,62,13,9,14,1,3,2,2,2,6.8059,11832.9134,0,1,White,F,Hispanic,M,White,F,0,1,0,1,One-versus-two-step,Neg Action
data_16,63,3,14,4,1,3,3,3,1,8.1801,11840.2502,1,1,Asian,F,White,F,White,M,0,0,1,0,One-versus-two-step,Friendship
data_16,64,14,15,13,1,1,2,13,2,2.8208,11848.9543,0,1,White,F,Asian,M,White,F,0,1,0,1,One-step,Neg Action
data_16,65,3,14,4,2,3,1,9,1,6.8126,11852.306,0,0,Asian,F,White,F,White,M,0,0,1,0,One-versus-two-step,Pos Action
data_16,66,13,11,14,1,1,1,9,1,4.3108,11859.6427,1,1,White,F,White,F,White,F,1,1,1,1,One-step,Pos Action
data_16,67,14,3,11,2,2,2,10,1,4.0671,11864.4783,0,1,White,F,Asian,F,White,F,0,1,1,1,Two-step,Neg Action
data_16,68,4,8,3,2,3,1,6,2,4.1375,11869.0805,1,1,White,M,White,F,Asian,F,1,0,0,0,One-versus-two-step,Pos Action
data_16,69,8,4,12,1,2,2,12,1,1.8287,11873.7494,1,0,White,F,White,M,Black,M,1,0,0,0,Two-step,Neg Action
data_16,70,3,14,5,1,2,3,3,2,2.6528,11876.1006,0,0,Asian,F,White,F,White,F,0,0,1,1,Two-step,Friendship
data_16,71,8,4,12,1,2,4,4,1,2.4201,11879.2854,1,1,White,F,White,M,Black,M,1,0,0,0,Two-step,Similarity
data_16,72,14,3,13,2,3,2,2,1,2.8245,11882.2368,0,1,White,F,Asian,F,White,F,0,1,1,1,One-versus-two-step,Neg Action
data_17,1,8,4,10,2,2,3,3,2,5.7016,14221.8906,1,1,White,M,White,F,White,M,1,1,0,1,Two-step,Friendship
data_17,2,4,8,1,1,2,3,3,1,4.5205,14228.1271,1,1,White,F,White,M,White,F,1,1,0,1,Two-step,Friendship
data_17,3,13,11,14,2,1,1,6,1,4.4736,14233.1795,0,0,White,F,Black,M,White,M,0,1,0,0,One-step,Pos Action
data_17,4,13,10,14,1,1,2,12,1,4.7669,14238.1819,1,0,White,F,White,M,White,M,1,1,0,0,One-step,Neg Action
data_17,5,4,8,1,2,2,4,4,1,3.6659,14243.4844,0,0,White,F,White,M,White,F,1,1,0,1,Two-step,Similarity
data_17,6,14,3,11,1,2,3,3,1,7.4967,14247.6864,1,1,White,M,Asian,M,Black,M,0,0,1,1,Two-step,Friendship
data_17,7,14,3,13,2,3,3,3,2,3.9571,14255.7068,1,1,White,M,Asian,M,White,F,0,1,1,0,One-versus-two-step,Friendship
data_17,8,3,14,4,1,3,1,1,1,2.3993,14260.1923,1,1,Asian,M,White,M,White,F,0,0,1,0,One-versus-two-step,Pos Action
data_17,9,3,14,4,1,3,4,4,1,3.183,14263.1271,1,1,Asian,M,White,M,White,F,0,0,1,0,One-versus-two-step,Similarity
data_17,10,4,8,3,2,3,1,1,2,3.1535,14266.8454,1,1,White,F,White,M,Asian,M,1,0,0,0,One-versus-two-step,Pos Action
data_17,11,3,14,7,1,2,1,9,2,5.0369,14270.5305,0,0,Asian,M,White,M,Black,M,0,0,1,1,Two-step,Pos Action
data_17,12,4,8,3,1,3,3,3,1,4.4262,14276.0998,1,1,White,F,White,M,Asian,M,1,0,0,0,One-versus-two-step,Friendship
data_17,13,3,14,6,2,2,3,3,2,3.865,14281.0522,1,1,Asian,M,White,M,Asian,F,0,1,1,0,Two-step,Friendship
data_17,14,3,2,4,2,1,3,3,2,3.1792,14285.4376,1,1,Asian,M,Black,F,White,F,0,0,0,0,One-step,Friendship
data_17,15,13,9,14,2,3,4,4,1,5.1411,14289.1393,0,0,White,F,Hispanic,M,White,M,0,1,0,0,One-versus-two-step,Similarity
data_17,16,9,13,8,2,3,3,3,2,3.1691,14294.8087,1,1,Hispanic,M,White,F,White,M,0,0,0,1,One-versus-two-step,Friendship
data_17,17,13,9,1,1,2,3,3,2,6.9401,14298.5105,0,0,White,F,Hispanic,M,White,F,0,1,0,1,Two-step,Friendship
data_17,18,9,13,6,2,2,2,14,1,6.1741,14305.9807,0,1,Hispanic,M,White,F,Asian,F,0,0,0,0,Two-step,Neg Action
data_17,19,13,9,1,2,2,1,9,1,2.9547,14312.6839,0,0,White,F,Hispanic,M,White,F,0,1,0,1,Two-step,Pos Action
data_17,20,8,4,9,1,3,4,4,2,3.4461,14316.1689,0,0,White,M,White,F,Hispanic,M,1,0,0,1,One-versus-two-step,Similarity
data_17,21,14,3,11,2,2,4,4,2,4.9228,14320.1374,1,1,White,M,Asian,M,Black,M,0,0,1,1,Two-step,Similarity
data_17,22,4,6,3,1,1,1,9,1,7.7058,14325.59,1,1,White,F,Asian,F,Asian,M,0,0,1,0,One-step,Pos Action
data_17,23,9,13,8,2,3,1,5,2,4.784,14333.8272,1,1,Hispanic,M,White,F,White,M,0,0,0,1,One-versus-two-step,Pos Action
data_17,24,4,7,3,1,1,2,11,1,5.8123,14339.1464,1,0,White,F,Black,M,Asian,M,0,0,0,0,One-step,Neg Action
data_17,25,13,9,2,2,2,4,4,1,3.3816,14345.4828,0,0,White,F,Hispanic,M,Black,F,0,0,0,1,Two-step,Similarity
data_17,26,9,13,7,1,2,1,7,1,5.9725,14349.3846,1,1,Hispanic,M,White,F,Black,M,0,0,0,1,Two-step,Pos Action
data_17,27,13,9,2,2,2,2,12,2,3.5928,14355.8877,1,0,White,F,Hispanic,M,Black,F,0,0,0,1,Two-step,Neg Action
data_17,28,8,6,9,2,1,1,8,2,3.1575,14360.0062,1,1,White,M,Asian,F,Hispanic,M,0,0,0,1,One-step,Pos Action
data_17,29,4,8,3,2,3,2,14,2,7.7911,14363.6914,1,0,White,F,White,M,Asian,M,1,0,0,0,One-versus-two-step,Neg Action
data_17,30,8,4,9,2,3,2,2,1,4.9705,14372.012,0,1,White,M,White,F,Hispanic,M,1,0,0,1,One-versus-two-step,Neg Action
data_17,31,9,13,8,2,3,4,4,1,3.1957,14377.5146,0,0,Hispanic,M,White,F,White,M,0,0,0,1,One-versus-two-step,Similarity
data_17,32,3,1,4,1,1,1,9,2,6.2649,14381.233,0,0,Asian,M,White,F,White,F,0,0,0,0,One-step,Pos Action
data_17,33,14,2,13,1,1,2,13,2,3.7892,14388.0196,0,1,White,M,Black,F,White,F,0,1,0,0,One-step,Neg Action
data_17,34,8,4,9,1,3,3,3,2,2.5101,14392.3383,0,0,White,M,White,F,Hispanic,M,1,0,0,1,One-versus-two-step,Friendship
data_17,35,14,15,13,2,1,3,3,2,3.7133,14395.373,1,1,White,M,Asian,F,White,F,0,1,0,0,One-step,Friendship
data_17,36,14,15,13,2,1,1,1,2,2.4619,14399.6084,1,1,White,M,Asian,F,White,F,0,1,0,0,One-step,Pos Action
data_17,37,14,3,10,2,2,1,1,2,3.5921,14402.5932,1,1,White,M,Asian,M,White,M,0,1,1,1,Two-step,Pos Action
data_17,38,13,9,14,1,3,3,3,1,5.3211,14406.7118,1,1,White,F,Hispanic,M,White,M,0,1,0,0,One-versus-two-step,Friendship
data_17,39,8,4,11,2,2,1,1,1,2.0043,14412.5646,0,0,White,M,White,F,Black,M,1,0,0,1,Two-step,Pos Action
data_17,40,8,4,11,1,2,2,10,2,2.8895,14415.0991,0,1,White,M,White,F,Black,M,1,0,0,1,Two-step,Neg Action
data_17,41,14,3,12,2,2,2,12,1,3.4187,14418.5174,0,1,White,M,Asian,M,White,F,0,1,1,0,Two-step,Neg Action
data_17,42,8,6,9,1,1,4,4,2,3.3245,14422.4692,0,0,White,M,Asian,F,Hispanic,M,0,0,0,1,One-step,Similarity
data_17,43,3,14,4,2,3,3,3,2,1.8891,14426.3211,1,1,Asian,M,White,M,White,F,0,0,1,0,One-versus-two-step,Friendship
data_17,44,14,2,13,2,1,4,4,2,6.7969,14428.7389,1,1,White,M,Black,F,White,F,0,1,0,0,One-step,Similarity
data_17,45,14,3,13,2,3,2,10,2,1.6772,14436.059,1,0,White,M,Asian,M,White,F,0,1,1,0,One-versus-two-step,Neg Action
data_17,46,3,14,6,1,2,4,4,1,3.8035,14438.2601,1,1,Asian,M,White,M,Asian,F,0,1,1,0,Two-step,Similarity
data_17,47,4,7,3,1,1,3,3,2,3.7036,14442.5955,0,0,White,F,Black,M,Asian,M,0,0,0,0,One-step,Friendship
data_17,48,9,12,8,2,1,4,4,1,5.6507,14446.8308,0,0,Hispanic,M,White,F,White,M,0,0,0,1,One-step,Similarity
data_17,49,3,14,7,2,2,2,10,1,3.4085,14453.0171,0,1,Asian,M,White,M,Black,M,0,0,1,1,Two-step,Neg Action
data_17,50,9,10,8,2,1,2,2,2,3.4559,14456.9522,1,0,Hispanic,M,White,M,White,M,0,0,1,1,One-step,Neg Action
data_17,51,4,7,3,2,1,4,4,1,3.5863,14460.9375,0,0,White,F,Black,M,Asian,M,0,0,0,0,One-step,Similarity
data_17,52,14,3,13,2,3,4,4,2,5.0517,14465.0561,1,1,White,M,Asian,M,White,F,0,1,1,0,One-versus-two-step,Similarity
data_17,53,3,14,4,1,3,2,14,2,6.5453,14470.6421,0,1,Asian,M,White,M,White,F,0,0,1,0,One-versus-two-step,Neg Action
data_17,54,14,3,13,2,3,1,5,2,6.8759,14477.7121,1,1,White,M,Asian,M,White,F,0,1,1,0,One-versus-two-step,Pos Action
data_17,55,3,15,4,1,1,2,2,2,3.4797,14485.1156,0,1,Asian,M,Asian,F,White,F,1,0,0,0,One-step,Neg Action
data_17,56,9,13,7,2,2,3,3,1,3.1501,14489.1175,0,0,Hispanic,M,White,F,Black,M,0,0,0,1,Two-step,Friendship
data_17,57,4,8,3,2,3,4,4,2,4.1531,14492.8025,1,1,White,F,White,M,Asian,M,1,0,0,0,One-versus-two-step,Similarity
data_17,58,9,13,5,1,2,4,4,2,4.7478,14497.4882,0,0,Hispanic,M,White,F,White,F,0,0,0,0,Two-step,Similarity
data_17,59,9,11,8,2,1,1,9,2,3.2306,14502.7573,1,1,Hispanic,M,Black,M,White,M,0,0,1,1,One-step,Pos Action
data_17,60,13,10,14,1,1,3,3,1,4.1107,14506.5091,1,1,White,F,White,M,White,M,1,1,0,0,One-step,Friendship
data_17,61,4,8,15,1,2,2,14,2,4.6751,14511.1446,0,1,White,F,White,M,Asian,F,1,0,0,1,Two-step,Neg Action
data_17,62,13,9,14,1,3,2,12,2,3.3524,14516.3471,0,1,White,F,Hispanic,M,White,M,0,1,0,0,One-versus-two-step,Neg Action
data_17,63,8,7,9,1,1,3,3,1,4.4751,14520.2323,1,1,White,M,Black,M,Hispanic,M,0,0,1,1,One-step,Friendship
data_17,64,9,13,8,2,3,2,14,2,5.9453,14525.2346,1,0,Hispanic,M,White,F,White,M,0,0,0,1,One-versus-two-step,Neg Action
data_17,65,13,9,14,2,3,1,9,2,3.3071,14531.7043,1,1,White,F,Hispanic,M,White,M,0,1,0,0,One-versus-two-step,Pos Action
data_17,66,8,7,9,1,1,2,13,1,2.8644,14535.5395,1,0,White,M,Black,M,Hispanic,M,0,0,1,1,One-step,Neg Action
data_17,67,9,11,8,2,1,3,3,2,3.4474,14538.9244,1,1,Hispanic,M,Black,M,White,M,0,0,1,1,One-step,Friendship
data_17,68,13,11,14,2,1,4,4,1,3.9829,14542.893,0,0,White,F,Black,M,White,M,0,1,0,0,One-step,Similarity
data_17,69,8,4,9,1,3,1,6,1,3.4635,14547.4118,1,1,White,M,White,F,Hispanic,M,1,0,0,1,One-versus-two-step,Pos Action
data_17,70,3,1,4,2,1,4,4,2,3.5501,14551.4137,1,1,Asian,M,White,F,White,F,0,0,0,0,One-step,Similarity
data_17,71,8,4,11,1,2,4,4,2,6.4732,14555.4989,0,0,White,M,White,F,Black,M,1,0,0,1,Two-step,Similarity
data_17,72,4,8,15,2,2,1,1,1,3.5417,14562.5023,0,0,White,F,White,M,Asian,F,1,0,0,1,Two-step,Pos Action
data_18,1,13,10,14,1,1,2,13,2,37.4046,16596.3195,0,1,White,F,Hispanic,M,Black,M,0,0,0,0,One-step,Neg Action
data_18,2,8,4,10,2,2,1,6,2,6.0387,16634.254,1,1,White,F,White,F,Hispanic,M,1,0,1,0,Two-step,Pos Action
data_18,3,13,9,1,1,2,1,1,1,7.9569,16640.8239,1,1,White,F,White,F,Asian,F,1,0,1,1,Two-step,Pos Action
data_18,4,3,14,4,2,3,3,3,1,7.7233,16649.3112,0,0,White,M,Black,M,White,F,0,1,1,0,One-versus-two-step,Friendship
data_18,5,3,14,6,2,2,3,3,2,6.6693,16657.5651,1,1,White,M,Black,M,Black,F,0,0,1,0,Two-step,Friendship
data_18,6,4,8,2,1,2,2,13,2,5.9435,16664.7685,0,1,White,F,White,F,White,F,1,1,1,1,Two-step,Neg Action
data_18,7,8,4,9,2,3,1,8,2,10.1583,16671.2383,1,1,White,F,White,F,White,F,1,1,1,1,One-versus-two-step,Pos Action
data_18,8,9,13,6,2,2,2,14,2,21.0454,16681.9266,1,0,White,F,White,F,Black,F,1,0,1,1,Two-step,Neg Action
data_18,9,3,15,4,2,1,4,4,1,6.3355,16703.5035,0,0,White,M,White,M,White,F,1,1,1,0,One-step,Similarity
data_18,10,9,12,8,1,1,3,3,2,4.9387,16710.3735,0,0,White,F,White,M,White,F,1,1,0,1,One-step,Friendship
data_18,11,8,4,12,2,2,4,4,2,8.935,16715.8428,1,1,White,F,White,F,White,M,1,1,1,0,Two-step,Similarity
data_18,12,14,3,11,1,2,3,3,1,5.0474,16725.3139,1,1,Black,M,White,M,Asian,F,0,0,1,0,Two-step,Friendship
data_18,13,14,1,13,1,1,3,3,2,4.5989,16730.8832,0,0,Black,M,Asian,F,White,F,0,0,0,0,One-step,Friendship
data_18,14,4,8,3,2,3,3,3,2,11.9402,16736.0022,1,1,White,F,White,F,White,M,1,1,1,0,One-versus-two-step,Friendship
data_18,15,4,7,3,2,1,2,13,2,8.6638,16748.4749,1,0,White,F,Black,M,White,M,0,1,0,0,One-step,Neg Action
data_18,16,4,5,3,1,1,3,3,2,2.7155,16757.6626,0,0,White,F,Asian,M,White,M,0,1,0,0,One-step,Friendship
data_18,17,13,12,14,2,1,1,1,2,8.4388,16760.9141,1,1,White,F,White,M,Black,M,1,0,0,0,One-step,Pos Action
data_18,18,13,11,14,2,1,4,4,1,9.9703,16769.885,0,0,White,F,Asian,F,Black,M,0,0,1,0,One-step,Similarity
data_18,19,14,15,13,1,1,2,11,1,19.722,16780.39,1,0,Black,M,White,M,White,F,0,0,1,0,One-step,Neg Action
data_18,20,13,11,14,1,1,3,3,2,6.2391,16800.633,0,0,White,F,Asian,F,Black,M,0,0,1,0,One-step,Friendship
data_18,21,9,13,8,1,3,2,14,1,6.2682,16807.4028,1,0,White,F,White,F,White,F,1,1,1,1,One-versus-two-step,Neg Action
data_18,22,14,3,13,2,3,1,9,2,10.1963,16814.2061,1,1,Black,M,White,M,White,F,0,0,1,0,One-versus-two-step,Pos Action
data_18,23,4,5,3,1,1,1,9,2,4.3154,16824.9278,0,0,White,F,Asian,M,White,M,0,1,0,0,One-step,Pos Action
data_18,24,3,14,4,2,3,4,4,2,23.8585,16829.7635,1,1,White,M,Black,M,White,F,0,1,1,0,One-versus-two-step,Similarity
data_18,25,3,1,4,1,1,3,3,2,3.338,16854.1583,0,0,White,M,Asian,F,White,F,0,1,0,0,One-step,Friendship
data_18,26,4,5,3,2,1,4,4,1,3.86,16858.0268,0,0,White,F,Asian,M,White,M,0,1,0,0,One-step,Similarity
data_18,27,13,9,14,2,3,3,3,2,15.197,16862.4123,1,1,White,F,White,F,Black,M,1,0,1,0,One-versus-two-step,Friendship
data_18,28,3,14,5,2,2,1,6,1,8.1729,16878.1364,0,0,White,M,Black,M,Asian,M,0,0,1,1,Two-step,Pos Action
data_18,29,9,13,8,2,3,3,3,2,7.8188,16886.8405,1,1,White,F,White,F,White,F,1,1,1,1,One-versus-two-step,Friendship
data_18,30,3,2,4,1,1,1,8,2,6.3983,16895.1944,0,0,White,M,White,F,White,F,1,1,0,0,One-step,Pos Action
data_18,31,13,9,1,1,2,4,4,1,7.8139,16902.1144,1,1,White,F,White,F,Asian,F,1,0,1,1,Two-step,Similarity
data_18,32,8,4,10,1,2,2,2,1,4.8452,16910.4517,1,0,White,F,White,F,Hispanic,M,1,0,1,0,Two-step,Neg Action
data_18,33,9,10,8,1,1,2,11,2,5.9342,16915.8209,0,1,White,F,Hispanic,M,White,F,0,1,0,1,One-step,Neg Action
data_18,34,13,9,2,1,2,3,3,2,11.9056,16922.2906,0,0,White,F,White,F,White,F,1,1,1,1,Two-step,Friendship
data_18,35,3,14,4,1,3,2,2,1,4.7834,16934.7299,1,0,White,M,Black,M,White,F,0,1,1,0,One-versus-two-step,Neg Action
data_18,36,9,10,8,2,1,1,1,1,12.1269,16940.0491,0,0,White,F,Hispanic,M,White,F,0,1,0,1,One-step,Pos Action
data_18,37,14,3,11,1,2,2,14,1,4.4295,16952.7051,1,0,Black,M,White,M,Asian,F,0,0,1,0,Two-step,Neg Action
data_18,38,14,2,13,2,1,1,7,1,4.0028,16957.6574,0,0,Black,M,White,F,White,F,0,0,0,0,One-step,Pos Action
data_18,39,8,5,9,2,1,1,5,1,5.431,16962.1929,0,0,White,F,Asian,M,White,F,0,1,0,1,One-step,Pos Action
data_18,40,8,6,9,1,1,2,12,2,12.5733,16968.1457,0,1,White,F,Black,F,White,F,0,1,1,1,One-step,Neg Action
data_18,41,13,9,14,1,3,2,2,1,8.4097,16981.2519,1,0,White,F,White,F,Black,M,1,0,1,0,One-versus-two-step,Neg Action
data_18,42,14,2,13,2,1,4,4,1,6.7912,16990.1895,0,0,Black,M,White,F,White,F,0,0,0,0,One-step,Similarity
data_18,43,3,14,4,1,3,1,5,2,6.9028,16997.5096,0,0,White,M,Black,M,White,F,0,1,1,0,One-versus-two-step,Pos Action
data_18,44,3,2,4,2,1,2,10,1,9.2223,17004.9465,0,1,White,M,White,F,White,F,1,1,0,0,One-step,Neg Action
data_18,45,9,13,8,2,3,1,1,2,9.5444,17014.7011,1,1,White,F,White,F,White,F,1,1,1,1,One-versus-two-step,Pos Action
data_18,46,4,8,1,2,2,3,3,2,6.0718,17024.7726,1,1,White,F,White,F,Asian,F,1,0,1,1,Two-step,Friendship
data_18,47,14,3,12,2,2,1,5,2,4.6958,17031.3757,1,1,Black,M,White,M,White,M,0,0,1,1,Two-step,Pos Action
data_18,48,8,4,9,1,3,2,11,1,9.3044,17036.5948,1,0,White,F,White,F,White,F,1,1,1,1,One-versus-two-step,Neg Action
data_18,49,4,8,3,1,3,4,4,2,10.7011,17046.4328,0,0,White,F,White,F,White,M,1,1,1,0,One-versus-two-step,Similarity
data_18,50,13,9,14,2,3,1,9,2,6.1265,17057.6548,1,1,White,F,White,F,Black,M,1,0,1,0,One-versus-two-step,Pos Action
data_18,51,4,8,3,2,3,1,5,1,6.3056,17064.308,0,0,White,F,White,F,White,M,1,1,1,0,One-versus-two-step,Pos Action
data_18,52,13,9,14,1,3,4,4,1,5.8214,17071.1445,1,1,White,F,White,F,Black,M,1,0,1,0,One-versus-two-step,Similarity
data_18,53,3,14,5,2,2,4,4,2,2.2447,17077.4975,1,1,White,M,Black,M,Asian,M,0,0,1,1,Two-step,Similarity
data_18,54,14,3,13,1,3,4,4,1,5.6601,17080.2655,1,1,Black,M,White,M,White,F,0,0,1,0,One-versus-two-step,Similarity
data_18,55,8,4,11,2,2,3,3,2,3.9302,17086.4518,1,1,White,F,White,F,Asian,F,1,0,1,1,Two-step,Friendship
data_18,56,9,13,6,2,2,3,3,2,6.0774,17090.9039,1,1,White,F,White,F,Black,F,1,0,1,1,Two-step,Friendship
data_18,57,14,3,13,1,3,2,13,2,6.7152,17097.5071,0,1,Black,M,White,M,White,F,0,0,1,0,One-versus-two-step,Neg Action
data_18,58,13,9,15,2,2,2,12,2,6.8295,17104.7438,1,0,White,F,White,F,White,M,1,1,1,0,Two-step,Neg Action
data_18,59,9,13,8,2,3,4,4,2,4.5328,17112.0972,1,1,White,F,White,F,White,F,1,1,1,1,One-versus-two-step,Similarity
data_18,60,8,4,9,2,3,3,3,2,8.3117,17117.1663,1,1,White,F,White,F,White,F,1,1,1,1,One-versus-two-step,Friendship
data_18,61,14,3,13,2,3,3,3,2,4.3296,17126.0039,1,1,Black,M,White,M,White,F,0,0,1,0,One-versus-two-step,Friendship
data_18,62,4,8,2,2,2,1,9,1,7.4,17130.8562,0,0,White,F,White,F,White,F,1,1,1,1,Two-step,Pos Action
data_18,63,4,8,1,2,2,4,4,2,3.2369,17138.7766,1,1,White,F,White,F,Asian,F,1,0,1,1,Two-step,Similarity
data_18,64,14,3,11,1,2,4,4,1,2.2361,17142.545,1,1,Black,M,White,M,Asian,F,0,0,1,0,Two-step,Similarity
data_18,65,8,5,9,2,1,4,4,1,2.9748,17145.313,0,0,White,F,Asian,M,White,F,0,1,0,1,One-step,Similarity
data_18,66,8,4,9,2,3,4,4,1,6.4599,17148.8147,0,0,White,F,White,F,White,F,1,1,1,1,One-versus-two-step,Similarity
data_18,67,9,13,7,1,2,4,4,1,8.7063,17155.8012,1,1,White,F,White,F,Black,M,1,0,1,0,Two-step,Similarity
data_18,68,3,14,5,2,2,2,2,1,5.796,17165.039,0,1,White,M,Black,M,Asian,M,0,0,1,1,Two-step,Neg Action
data_18,69,8,6,9,1,1,3,3,2,6.2106,17171.3587,0,0,White,F,Black,F,White,F,0,1,1,1,One-step,Friendship
data_18,70,9,10,8,2,1,4,4,1,3.5823,17178.0952,0,0,White,F,Hispanic,M,White,F,0,1,0,1,One-step,Similarity
data_18,71,4,8,3,2,3,2,2,2,10.1435,17182.2139,1,0,White,F,White,F,White,M,1,1,1,0,One-versus-two-step,Neg Action
data_18,72,9,13,5,1,2,1,5,1,4.877,17192.8856,1,1,White,F,White,F,Asian,M,1,0,1,0,Two-step,Pos Action
data_19,1,8,5,9,2,1,4,4,1,10.0539,1781.0249,0,0,White,M,White,F,Black,F,1,0,0,0,One-step,Similarity
data_19,2,8,4,9,2,3,4,4,2,4.3024,1791.6133,1,1,White,M,Asian,F,Black,F,0,0,0,0,One-versus-two-step,Similarity
data_19,3,4,8,2,2,2,2,10,2,8.2349,1796.4656,1,0,Asian,F,White,M,Black,M,0,0,0,0,Two-step,Neg Action
data_19,4,9,11,8,2,1,3,3,1,8.6538,1805.2364,0,0,Black,F,Asian,F,White,M,0,0,1,0,One-step,Friendship
data_19,5,9,13,7,2,2,2,14,2,4.0035,1814.424,1,0,Black,F,White,F,White,F,0,0,1,1,Two-step,Neg Action
data_19,6,4,8,1,1,2,4,4,2,4.1751,1818.9597,0,0,Asian,F,White,M,White,F,0,0,0,1,Two-step,Similarity
data_19,7,9,11,8,2,1,2,11,2,4.9342,1823.6619,1,0,Black,F,Asian,F,White,M,0,0,1,0,One-step,Neg Action
data_19,8,4,8,15,2,2,1,1,1,3.1542,1829.1311,0,0,Asian,F,White,M,White,M,0,0,0,0,Two-step,Pos Action
data_19,9,14,3,13,1,3,3,3,1,4.2627,1832.8162,1,1,Black,M,White,F,White,F,0,0,0,0,One-versus-two-step,Friendship
data_19,10,3,14,4,2,3,4,4,2,3.2275,1837.6018,1,1,White,F,Black,M,Asian,F,0,0,0,1,One-versus-two-step,Similarity
data_19,11,4,8,3,1,3,3,3,2,4.2608,1841.3535,0,0,Asian,F,White,M,White,F,0,0,0,1,One-versus-two-step,Friendship
data_19,12,14,1,13,2,1,1,5,2,2.4906,1846.1391,1,1,Black,M,White,F,White,F,0,0,0,0,One-step,Pos Action
data_19,13,13,9,14,1,3,2,14,1,2.6716,1849.1573,1,0,White,F,Black,F,Black,M,0,0,1,0,One-versus-two-step,Neg Action
data_19,14,4,6,3,2,1,2,11,1,4.2562,1852.3588,0,1,Asian,F,Asian,M,White,F,1,0,0,1,One-step,Neg Action
data_19,15,13,9,14,2,3,4,4,2,4.0923,1857.1444,1,1,White,F,Black,F,Black,M,0,0,1,0,One-versus-two-step,Similarity
data_19,16,3,14,7,1,2,4,4,2,3.5327,1861.7632,0,0,White,F,Black,M,White,F,0,1,0,1,Two-step,Similarity
data_19,17,8,4,10,1,2,3,3,2,2.4,1865.8319,0,0,White,M,Asian,F,White,M,0,1,0,1,Two-step,Friendship
data_19,18,8,6,9,2,1,3,3,2,2.177,1868.7666,1,1,White,M,Asian,M,Black,F,0,0,1,0,One-step,Friendship
data_19,19,9,11,8,1,1,4,4,1,5.5219,1871.4679,1,1,Black,F,Asian,F,White,M,0,0,1,0,One-step,Similarity
data_19,20,8,5,9,2,1,1,5,2,2.6775,1877.5207,1,1,White,M,White,F,Black,F,1,0,0,0,One-step,Pos Action
data_19,21,14,3,12,1,2,1,1,2,2.3965,1880.7223,0,0,Black,M,White,F,Hispanic,M,0,0,0,1,Two-step,Pos Action
data_19,22,3,14,4,1,3,2,2,2,2.4625,1883.6403,0,1,White,F,Black,M,Asian,F,0,0,0,1,One-versus-two-step,Neg Action
data_19,23,14,2,13,1,1,4,4,2,2.5973,1886.6251,0,0,Black,M,Black,M,White,F,1,0,1,0,One-step,Similarity
data_19,24,3,14,7,1,2,1,7,1,13.2081,1889.7432,1,1,White,F,Black,M,White,F,0,1,0,1,Two-step,Pos Action
data_19,25,14,3,11,2,2,2,12,2,3.9872,1903.483,1,0,Black,M,White,F,Asian,F,0,0,0,0,Two-step,Neg Action
data_19,26,4,8,3,1,3,1,9,1,4.3962,1908.0017,1,1,Asian,F,White,M,White,F,0,0,0,1,One-versus-two-step,Pos Action
data_19,27,9,13,8,2,3,4,4,1,2.7745,1912.9208,0,0,Black,F,White,F,White,M,0,0,1,0,One-versus-two-step,Similarity
data_19,28,9,13,8,1,3,2,14,2,2.4414,1916.2224,0,1,Black,F,White,F,White,M,0,0,1,0,One-versus-two-step,Neg Action
data_19,29,14,3,13,1,3,1,1,1,4.0804,1919.1905,1,1,Black,M,White,F,White,F,0,0,0,0,One-versus-two-step,Pos Action
data_19,30,8,5,9,2,1,2,13,2,3.8037,1923.7926,1,0,White,M,White,F,Black,F,1,0,0,0,One-step,Neg Action
data_19,31,13,12,14,2,1,2,10,1,3.9622,1928.128,0,1,White,F,Hispanic,M,Black,M,0,0,0,0,One-step,Neg Action
data_19,32,13,9,1,2,2,3,3,2,2.9948,1932.6135,1,1,White,F,Black,F,White,F,0,1,1,1,Two-step,Friendship
data_19,33,3,15,4,2,1,2,11,1,3.3855,1936.1319,0,1,White,F,White,M,Asian,F,1,0,0,1,One-step,Neg Action
data_19,34,9,13,8,2,3,3,3,1,1.9071,1940.0504,0,0,Black,F,White,F,White,M,0,0,1,0,One-versus-two-step,Friendship
data_19,35,14,3,13,1,3,4,4,2,3.1191,1942.4848,0,0,Black,M,White,F,White,F,0,0,0,0,One-versus-two-step,Similarity
data_19,36,8,4,10,1,2,2,12,2,5.3204,1946.1366,0,1,White,M,Asian,F,White,M,0,1,0,1,Two-step,Neg Action
data_19,37,8,4,12,1,2,1,8,2,2.9377,1951.9893,0,0,White,M,Asian,F,Hispanic,M,0,0,0,1,Two-step,Pos Action
data_19,38,8,4,12,1,2,4,4,1,4.1116,1955.4577,1,1,White,M,Asian,F,Hispanic,M,0,0,0,1,Two-step,Similarity
data_19,39,13,9,1,1,2,4,4,2,6.1439,1960.0932,0,0,White,F,Black,F,White,F,0,1,1,1,Two-step,Similarity
data_19,40,14,3,13,1,3,2,11,2,3.0934,1966.7631,0,1,Black,M,White,F,White,F,0,0,0,0,One-versus-two-step,Neg Action
data_19,41,3,15,4,1,1,4,4,2,4.3649,1970.3814,0,0,White,F,White,M,Asian,F,1,0,0,1,One-step,Similarity
data_19,42,4,5,3,1,1,1,9,1,2.1669,1975.2671,1,1,Asian,F,White,F,White,F,0,0,1,1,One-step,Pos Action
data_19,43,14,3,10,2,2,3,3,1,2.6335,1977.9684,0,0,Black,M,White,F,White,M,0,0,0,1,Two-step,Friendship
data_19,44,9,10,8,1,1,1,7,1,3.1203,1981.1365,1,1,Black,F,White,M,White,M,0,0,0,0,One-step,Pos Action
data_19,45,4,7,3,1,1,4,4,1,3.6204,1984.7883,1,1,Asian,F,White,F,White,F,0,0,1,1,One-step,Similarity
data_19,46,4,8,15,1,2,3,3,2,2.5565,1988.9402,0,0,Asian,F,White,M,White,M,0,0,0,0,Two-step,Friendship
data_19,47,9,13,7,2,2,1,8,2,6.3988,1992.025,1,1,Black,F,White,F,White,F,0,0,1,1,Two-step,Pos Action
data_19,48,3,2,4,2,1,3,3,2,1.6629,1998.9449,1,1,White,F,Black,M,Asian,F,0,0,0,1,One-step,Friendship
data_19,49,4,8,3,2,3,4,4,1,3.2084,2001.1292,0,0,Asian,F,White,M,White,F,0,0,0,1,One-versus-two-step,Similarity
data_19,50,14,1,13,2,1,3,3,2,3.0027,2004.8644,1,1,Black,M,White,F,White,F,0,0,0,0,One-step,Friendship
data_19,51,8,4,9,2,3,3,3,1,2.2279,2008.3995,0,0,White,M,Asian,F,Black,F,0,0,0,0,One-versus-two-step,Friendship
data_19,52,3,14,4,2,3,3,3,2,2.556,2011.1508,1,1,White,F,Black,M,Asian,F,0,0,0,1,One-versus-two-step,Friendship
data_19,53,13,9,14,1,3,1,9,1,3.1406,2014.2356,1,1,White,F,Black,F,Black,M,0,0,1,0,One-versus-two-step,Pos Action
data_19,54,9,13,6,2,2,4,4,1,4.4009,2017.904,0,0,Black,F,White,F,Asian,M,0,0,1,0,Two-step,Similarity
data_19,55,4,8,3,1,3,2,13,2,4.1534,2022.8396,0,1,Asian,F,White,M,White,F,0,0,0,1,One-versus-two-step,Neg Action
data_19,56,8,4,9,1,3,1,1,2,3.7375,2027.5252,0,0,White,M,Asian,F,Black,F,0,0,0,0,One-versus-two-step,Pos Action
data_19,57,3,2,4,1,1,1,9,1,3.1142,2031.7939,1,1,White,F,Black,M,Asian,F,0,0,0,1,One-step,Pos Action
data_19,58,4,5,3,2,1,3,3,1,4.1459,2035.4289,0,0,Asian,F,White,F,White,F,0,0,1,1,One-step,Friendship
data_19,59,14,2,13,2,1,2,14,2,3.1987,2040.0978,1,0,Black,M,Black,M,White,F,1,0,1,0,One-step,Neg Action
data_19,60,3,14,5,2,2,3,3,2,2.3763,2043.8329,1,1,White,F,Black,M,White,F,0,1,0,1,Two-step,Friendship
data_19,61,13,12,14,2,1,1,5,2,1.9543,2046.7343,1,1,White,F,Hispanic,M,Black,M,0,0,0,0,One-step,Pos Action
data_19,62,3,14,4,2,3,1,5,1,2.3105,2049.2188,0,0,White,F,Black,M,Asian,F,0,0,0,1,One-versus-two-step,Pos Action
data_19,63,13,11,14,2,1,3,3,1,1.7872,2052.0535,0,0,White,F,Asian,F,Black,M,0,0,1,0,One-step,Friendship
data_19,64,13,11,14,1,1,4,4,1,2.1262,2054.3713,1,1,White,F,Asian,F,Black,M,0,0,1,0,One-step,Similarity
data_19,65,9,13,8,1,3,1,8,1,7.2532,2057.0225,1,1,Black,F,White,F,White,M,0,0,1,0,One-versus-two-step,Pos Action
data_19,66,9,13,7,1,2,3,3,2,1.6584,2064.8095,0,0,Black,F,White,F,White,F,0,0,1,1,Two-step,Friendship
data_19,67,8,4,9,1,3,2,13,1,4.7841,2066.9939,1,0,White,M,Asian,F,Black,F,0,0,0,0,One-versus-two-step,Neg Action
data_19,68,13,9,1,2,2,2,11,1,5.6705,2072.3131,0,1,White,F,Black,F,White,F,0,1,1,1,Two-step,Neg Action
data_19,69,13,9,15,1,2,1,1,1,2.3879,2078.5159,1,1,White,F,Black,F,White,M,0,1,1,0,Two-step,Pos Action
data_19,70,14,3,12,2,2,4,4,2,5.0634,2081.4341,1,1,Black,M,White,F,Hispanic,M,0,0,0,1,Two-step,Similarity
data_19,71,3,14,6,2,2,2,12,1,1.5411,2087.02,0,1,White,F,Black,M,Asian,M,0,0,0,0,Two-step,Neg Action
data_19,72,13,9,14,2,3,3,3,1,7.4914,2089.0877,0,0,White,F,Black,F,Black,M,0,0,1,0,One-versus-two-step,Friendship
data_2_,1,4,8,15,2,2,4,4,2,19.8958,105158.9872,1,1,White,M,White,F,Black,M,1,0,0,1,Two-step,Similarity
data_2_,2,14,3,12,2,2,4,4,1,11.5826,105179.4136,0,0,Asian,F,Black,F,Asian,F,0,1,1,1,Two-step,Similarity
data_2_,3,14,15,13,2,1,3,3,2,9.4206,105191.5359,1,1,Asian,F,Black,M,Black,M,0,0,0,0,One-step,Friendship
data_2_,4,13,9,2,1,2,2,2,1,15.2109,105201.4908,1,0,Black,M,White,M,Hispanic,M,0,0,1,1,Two-step,Neg Action
data_2_,5,3,14,5,1,2,4,4,2,6.9367,105217.2315,0,0,Black,F,Asian,F,White,F,0,0,1,1,Two-step,Similarity
data_2_,6,8,5,9,2,1,4,4,2,10.1568,105224.7017,1,1,White,F,White,F,White,M,1,1,1,0,One-step,Similarity
data_2_,7,14,3,11,1,2,1,6,2,6.4777,105235.3902,0,0,Asian,F,Black,F,White,F,0,0,1,1,Two-step,Pos Action
data_2_,8,3,14,7,2,2,2,10,1,7.3022,105242.3935,0,1,Black,F,Asian,F,White,F,0,0,1,1,Two-step,Neg Action
data_2_,9,13,9,14,1,3,4,4,1,5.2723,105250.2305,1,1,Black,M,White,M,Asian,F,0,0,1,0,One-versus-two-step,Similarity
data_2_,10,3,14,4,1,3,3,3,2,5.729,105256.0333,0,0,Black,F,Asian,F,White,M,0,0,1,0,One-versus-two-step,Friendship
data_2_,11,14,3,13,1,3,1,6,2,7.0627,105262.2863,0,0,Asian,F,Black,F,Black,M,0,0,1,0,One-versus-two-step,Pos Action
data_2_,12,4,8,1,1,2,3,3,2,5.1955,105269.8731,0,0,White,M,White,F,White,M,1,1,0,1,Two-step,Friendship
data_2_,13,13,9,1,1,2,3,3,1,3.4979,105275.5926,1,1,Black,M,White,M,White,M,0,0,1,1,Two-step,Friendship
data_2_,14,14,3,12,2,2,2,10,1,4.7216,105279.6111,0,1,Asian,F,Black,F,Asian,F,0,1,1,1,Two-step,Neg Action
data_2_,15,4,6,3,1,1,3,3,1,5.3204,105284.8636,1,1,White,M,Asian,M,Black,F,0,0,1,0,One-step,Friendship
data_2_,16,9,13,8,1,3,4,4,2,9.0229,105290.7163,0,0,White,M,Black,M,White,F,0,1,1,0,One-versus-two-step,Similarity
data_2_,17,8,5,9,1,1,2,10,2,6.1861,105300.2709,0,1,White,F,White,F,White,M,1,1,1,0,One-step,Neg Action
data_2_,18,3,2,4,1,1,4,4,2,11.3691,105306.9907,0,0,Black,F,Hispanic,M,White,M,0,0,0,0,One-step,Similarity
data_2_,19,3,14,7,2,2,1,9,2,12.4544,105318.8964,1,1,Black,F,Asian,F,White,F,0,0,1,1,Two-step,Pos Action
data_2_,20,8,4,9,1,3,2,12,1,5.7561,105331.8859,1,0,White,F,White,M,White,M,1,1,0,0,One-versus-two-step,Neg Action
data_2_,21,8,4,9,2,3,4,4,1,5.1536,105338.1722,0,0,White,F,White,M,White,M,1,1,0,0,One-versus-two-step,Similarity
data_2_,22,9,13,6,1,2,4,4,1,4.5613,105343.8582,1,1,White,M,Black,M,Asian,M,0,0,1,1,Two-step,Similarity
data_2_,23,14,3,13,1,3,2,2,1,7.0187,105348.944,1,0,Asian,F,Black,F,Black,M,0,0,1,0,One-versus-two-step,Neg Action
data_2_,24,13,9,15,2,2,4,4,1,3.5457,105356.4976,0,0,Black,M,White,M,Black,M,0,1,1,1,Two-step,Similarity
data_2_,25,8,6,9,1,1,3,3,2,5.8451,105360.5662,0,0,White,F,Asian,M,White,M,0,1,0,0,One-step,Friendship
data_2_,26,9,13,5,1,2,1,9,1,6.4407,105366.9359,1,1,White,M,Black,M,White,F,0,1,1,0,Two-step,Pos Action
data_2_,27,13,9,14,1,3,2,13,1,6.7227,105373.9058,1,0,Black,M,White,M,Asian,F,0,0,1,0,One-versus-two-step,Neg Action
data_2_,28,4,8,3,2,3,2,10,2,6.2786,105381.1593,1,0,White,M,White,F,Black,F,1,0,0,0,One-versus-two-step,Neg Action
data_2_,29,9,12,8,1,1,4,4,2,5.968,105387.9625,0,0,White,M,Asian,F,White,F,0,1,0,0,One-step,Similarity
data_2_,30,8,5,9,1,1,1,8,1,10.431,105394.4656,1,1,White,F,White,F,White,M,1,1,1,0,One-step,Pos Action
data_2_,31,3,14,5,2,2,3,3,1,7.0555,105405.4208,0,0,Black,F,Asian,F,White,F,0,0,1,1,Two-step,Friendship
data_2_,32,14,3,13,1,3,3,3,1,4.5966,105413.0077,1,1,Asian,F,Black,F,Black,M,0,0,1,0,One-versus-two-step,Friendship
data_2_,33,14,3,13,2,3,4,4,2,5.7008,105418.1268,1,1,Asian,F,Black,F,Black,M,0,0,1,0,One-versus-two-step,Similarity
data_2_,34,4,8,3,2,3,3,3,1,14.9654,105424.3631,0,0,White,M,White,F,Black,F,1,0,0,0,One-versus-two-step,Friendship
data_2_,35,8,4,9,1,3,3,3,2,4.2611,105439.8538,0,0,White,F,White,M,White,M,1,1,0,0,One-versus-two-step,Friendship
data_2_,36,3,15,4,2,1,3,3,2,4.3417,105444.6394,1,1,Black,F,Black,M,White,M,1,0,0,0,One-step,Friendship
data_2_,37,4,8,3,2,3,1,5,1,10.8238,105449.5084,0,0,White,M,White,F,Black,F,1,0,0,0,One-versus-two-step,Pos Action
data_2_,38,9,13,8,1,3,2,2,2,5.9408,105460.8637,0,1,White,M,Black,M,White,F,0,1,1,0,One-versus-two-step,Neg Action
data_2_,39,9,10,8,1,1,2,11,2,26.0228,105467.3335,0,1,White,M,White,F,White,F,1,1,0,0,One-step,Neg Action
data_2_,40,4,7,3,2,1,2,2,2,4.4969,105493.8794,1,0,White,M,White,F,Black,F,1,0,0,0,One-step,Neg Action
data_2_,41,14,1,13,2,1,1,1,2,6.7417,105498.8984,1,1,Asian,F,White,M,Black,M,0,0,0,0,One-step,Pos Action
data_2_,42,9,13,7,1,2,2,11,1,5.6619,105506.1685,1,0,White,M,Black,M,White,F,0,1,1,0,Two-step,Neg Action
data_2_,43,4,6,3,1,1,1,1,1,8.9484,105512.3548,1,1,White,M,Asian,M,Black,F,0,0,1,0,One-step,Pos Action
data_2_,44,14,2,13,2,1,4,4,2,6.1562,105521.826,1,1,Asian,F,Hispanic,M,Black,M,0,0,0,0,One-step,Similarity
data_2_,45,9,13,8,2,3,1,8,1,6.3957,105528.5125,0,0,White,M,Black,M,White,F,0,1,1,0,One-versus-two-step,Pos Action
data_2_,46,9,13,6,2,2,3,3,2,3.5901,105535.4324,1,1,White,M,Black,M,Asian,M,0,0,1,1,Two-step,Friendship
data_2_,47,4,8,1,1,2,1,1,2,3.7204,105539.551,0,0,White,M,White,F,White,M,1,1,0,1,Two-step,Pos Action
data_2_,48,13,9,14,1,3,1,8,1,4.0099,105543.8031,1,1,Black,M,White,M,Asian,F,0,0,1,0,One-versus-two-step,Pos Action
data_2_,49,3,2,4,2,1,1,1,1,5.1807,105548.3385,0,0,Black,F,Hispanic,M,White,M,0,0,0,0,One-step,Pos Action
data_2_,50,13,10,14,1,1,2,14,1,7.201,105554.0412,1,0,Black,M,White,F,Asian,F,0,0,0,0,One-step,Neg Action
data_2_,51,3,2,4,1,1,2,12,1,7.3351,105561.7782,1,0,Black,F,Hispanic,M,White,M,0,0,0,0,One-step,Neg Action
data_2_,52,13,9,1,2,2,1,7,2,17.7408,105569.6486,1,1,Black,M,White,M,White,M,0,0,1,1,Two-step,Pos Action
data_2_,53,8,4,9,2,3,1,7,1,7.815,105587.924,0,0,White,F,White,M,White,M,1,1,0,0,One-versus-two-step,Pos Action
data_2_,54,4,8,3,2,3,4,4,1,5.9919,105596.2613,0,0,White,M,White,F,Black,F,1,0,0,0,One-versus-two-step,Similarity
data_2_,55,4,7,3,2,1,4,4,1,7.9286,105602.781,0,0,White,M,White,F,Black,F,1,0,0,0,One-step,Similarity
data_2_,56,8,4,10,1,2,3,3,1,7.4634,105611.235,1,1,White,F,White,M,White,F,1,1,0,1,Two-step,Friendship
data_2_,57,14,2,13,2,1,2,11,1,8.6645,105619.2221,0,1,Asian,F,Hispanic,M,Black,M,0,0,0,0,One-step,Neg Action
data_2_,58,13,9,14,2,3,3,3,2,3.0122,105628.4098,1,1,Black,M,White,M,Asian,F,0,0,1,0,One-versus-two-step,Friendship
data_2_,59,3,14,4,2,3,2,2,1,10.6983,105631.9448,0,1,Black,F,Asian,F,White,M,0,0,1,0,One-versus-two-step,Neg Action
data_2_,60,8,4,12,2,2,2,2,1,8.1355,105643.1668,0,1,White,F,White,M,Asian,F,1,0,0,1,Two-step,Neg Action
data_2_,61,3,14,4,2,3,1,8,1,5.9869,105651.8376,0,0,Black,F,Asian,F,White,M,0,0,1,0,One-versus-two-step,Pos Action
data_2_,62,13,11,14,2,1,3,3,2,3.9514,105658.3573,1,1,Black,M,White,F,Asian,F,0,0,0,0,One-step,Friendship
data_2_,63,8,4,10,2,2,1,1,2,6.858,105662.8428,1,1,White,F,White,M,White,F,1,1,0,1,Two-step,Pos Action
data_2_,64,9,12,8,1,1,3,3,2,5.9498,105670.2297,0,0,White,M,Asian,F,White,F,0,1,0,0,One-step,Friendship
data_2_,65,9,13,8,2,3,3,3,2,3.5208,105676.7161,1,1,White,M,Black,M,White,F,0,1,1,0,One-versus-two-step,Friendship
data_2_,66,8,4,10,1,2,4,4,2,7.8246,105680.768,0,0,White,F,White,M,White,F,1,1,0,1,Two-step,Similarity
data_2_,67,13,12,14,1,1,1,6,2,11.9007,105689.1219,0,0,Black,M,Asian,F,Asian,F,0,0,0,0,One-step,Pos Action
data_2_,68,4,8,1,1,2,2,12,2,14.3104,105701.5445,0,1,White,M,White,F,White,M,1,1,0,1,Two-step,Neg Action
data_2_,69,9,12,8,1,1,1,1,1,5.7672,105716.3849,1,1,White,M,Asian,F,White,F,0,1,0,0,One-step,Pos Action
data_2_,70,3,14,4,1,3,4,4,1,8.4209,105722.6878,1,1,Black,F,Asian,F,White,M,0,0,1,0,One-versus-two-step,Similarity
data_2_,71,14,3,10,1,2,3,3,1,4.7049,105731.642,1,1,Asian,F,Black,F,White,F,0,0,1,1,Two-step,Friendship
data_2_,72,13,10,14,2,1,4,4,2,6.2691,105736.8779,1,1,Black,M,White,F,Asian,F,0,0,0,0,One-step,Similarity
data_20,1,8,4,9,2,3,1,5,2,18.0554,4100.919,1,1,Hispanic,M,White,F,White,M,0,0,0,1,One-versus-two-step,Pos Action
data_20,2,9,12,8,2,1,2,11,2,6.8959,4119.5112,1,0,White,M,Black,M,Hispanic,M,0,0,1,1,One-step,Neg Action
data_20,3,9,13,6,1,2,2,11,2,9.1936,4126.9314,0,1,White,M,White,F,White,F,1,1,0,0,Two-step,Neg Action
data_20,4,14,1,13,2,1,3,3,1,4.1819,4136.6526,0,0,White,F,White,M,White,F,1,1,0,1,One-step,Friendship
data_20,5,14,3,11,2,2,4,4,2,10.5202,4141.3549,1,1,White,F,Asian,F,Asian,F,0,0,1,1,Two-step,Similarity
data_20,6,3,14,4,1,3,1,8,1,5.1885,4152.4102,1,1,Asian,F,White,F,White,F,0,0,1,1,One-versus-two-step,Pos Action
data_20,7,13,9,1,1,2,4,4,2,8.2741,4158.1295,0,0,White,F,White,M,White,M,1,1,0,0,Two-step,Similarity
data_20,8,8,7,9,2,1,3,3,1,6.427,4166.9337,0,0,Hispanic,M,Black,M,White,M,0,0,1,1,One-step,Friendship
data_20,9,13,9,14,2,3,2,2,1,7.8353,4173.887,0,1,White,F,White,M,White,F,1,1,0,1,One-versus-two-step,Neg Action
data_20,10,14,3,11,1,2,2,13,2,3.9352,4182.2576,0,1,White,F,Asian,F,Asian,F,0,0,1,1,Two-step,Neg Action
data_20,11,4,8,3,2,3,1,1,1,4.6351,4186.7263,0,0,White,F,Hispanic,M,Asian,F,0,0,0,1,One-versus-two-step,Pos Action
data_20,12,14,3,13,2,3,1,5,1,9.3956,4191.8955,0,0,White,F,Asian,F,White,F,0,1,1,1,One-versus-two-step,Pos Action
data_20,13,4,8,15,1,2,3,3,2,3.3247,4201.8169,0,0,White,F,Hispanic,M,Black,F,0,0,0,1,Two-step,Friendship
data_20,14,4,5,3,1,1,4,4,2,5.6892,4205.6687,0,0,White,F,Asian,M,Asian,F,0,0,0,1,One-step,Similarity
data_20,15,13,9,1,2,2,3,3,2,4.4566,4211.8884,1,1,White,F,White,M,White,M,1,1,0,0,Two-step,Friendship
data_20,16,8,4,11,2,2,3,3,2,3.4697,4216.8741,1,1,Hispanic,M,White,F,Asian,F,0,0,0,0,Two-step,Friendship
data_20,17,3,14,4,1,3,2,2,1,5.2916,4220.8759,1,0,Asian,F,White,F,White,F,0,0,1,1,One-versus-two-step,Neg Action
data_20,18,9,13,6,1,2,4,4,2,3.0855,4226.6954,0,0,White,M,White,F,White,F,1,1,0,0,Two-step,Similarity
data_20,19,14,2,13,2,1,2,14,2,5.795,4230.3137,1,0,White,F,White,M,White,F,1,1,0,1,One-step,Neg Action
data_20,20,3,2,4,1,1,2,14,2,12.773,4236.6334,0,1,Asian,F,White,M,White,F,0,0,0,1,One-step,Neg Action
data_20,21,4,8,1,2,2,2,11,1,2.7334,4249.9397,0,1,White,F,Hispanic,M,White,M,0,1,0,0,Two-step,Neg Action
data_20,22,3,14,5,2,2,3,3,1,4.291,4253.2079,0,0,Asian,F,White,F,Asian,M,0,1,1,0,Two-step,Friendship
data_20,23,9,11,8,2,1,3,3,2,3.3403,4258.0269,1,1,White,M,Asian,F,Hispanic,M,0,0,0,1,One-step,Friendship
data_20,24,9,13,8,1,3,1,9,1,4.0799,4261.8953,1,1,White,M,White,F,Hispanic,M,1,0,0,1,One-versus-two-step,Pos Action
data_20,25,13,10,14,1,1,3,3,1,5.4039,4266.4976,1,1,White,F,White,F,White,F,1,1,1,1,One-step,Friendship
data_20,26,14,3,10,1,2,3,3,1,3.1797,4272.4337,1,1,White,F,Asian,F,White,F,0,1,1,1,Two-step,Friendship
data_20,27,13,9,1,2,2,1,9,1,2.7339,4276.1355,0,0,White,F,White,M,White,M,1,1,0,0,Two-step,Pos Action
data_20,28,8,7,9,1,1,1,8,1,4.122,4279.4037,1,1,Hispanic,M,Black,M,White,M,0,0,1,1,One-step,Pos Action
data_20,29,13,10,14,2,1,2,12,2,4.2221,4284.0559,1,0,White,F,White,F,White,F,1,1,1,1,One-step,Neg Action
data_20,30,4,6,3,1,1,1,9,2,10.9808,4288.8081,0,0,White,F,White,F,Asian,F,1,0,1,1,One-step,Pos Action
data_20,31,3,14,4,1,3,4,4,2,3.3479,4300.3136,0,0,Asian,F,White,F,White,F,0,0,1,1,One-versus-two-step,Similarity
data_20,32,14,3,13,2,3,4,4,1,5.7754,4304.1821,0,0,White,F,Asian,F,White,F,0,1,1,1,One-versus-two-step,Similarity
data_20,33,8,4,11,1,2,4,4,2,3.0407,4310.485,0,0,Hispanic,M,White,F,Asian,F,0,0,0,0,Two-step,Similarity
data_20,34,4,7,3,1,1,2,13,2,2.6962,4314.0534,0,1,White,F,Black,M,Asian,F,0,0,0,1,One-step,Neg Action
data_20,35,9,13,6,1,2,3,3,2,3.678,4317.2716,0,0,White,M,White,F,White,F,1,1,0,0,Two-step,Friendship
data_20,36,3,14,7,1,2,2,11,2,7.4515,4321.4736,0,1,Asian,F,White,F,Black,M,0,0,1,0,Two-step,Neg Action
data_20,37,8,4,9,1,3,4,4,1,2.905,4329.4607,1,1,Hispanic,M,White,F,White,M,0,0,0,1,One-versus-two-step,Similarity
data_20,38,14,3,11,2,2,1,1,2,2.5581,4332.8957,1,1,White,F,Asian,F,Asian,F,0,0,1,1,Two-step,Pos Action
data_20,39,3,14,7,2,2,1,7,2,5.3372,4335.9804,1,1,Asian,F,White,F,Black,M,0,0,1,0,Two-step,Pos Action
data_20,40,8,5,9,2,1,4,4,2,3.6431,4341.85,1,1,Hispanic,M,Asian,M,White,M,0,0,1,1,One-step,Similarity
data_20,41,9,13,8,1,3,4,4,1,3.2906,4346.0185,1,1,White,M,White,F,Hispanic,M,1,0,0,1,One-versus-two-step,Similarity
data_20,42,3,14,4,1,3,3,3,1,3.5366,4349.837,1,1,Asian,F,White,F,White,F,0,0,1,1,One-versus-two-step,Friendship
data_20,43,4,8,3,2,3,3,3,1,3.7718,4353.9057,0,0,White,F,Hispanic,M,Asian,F,0,0,0,1,One-versus-two-step,Friendship
data_20,44,4,8,2,2,2,1,8,1,2.7899,4358.2077,0,0,White,F,Hispanic,M,White,M,0,1,0,0,Two-step,Pos Action
data_20,45,8,4,9,1,3,3,3,1,3.3271,4361.526,1,1,Hispanic,M,White,F,White,M,0,0,0,1,One-versus-two-step,Friendship
data_20,46,4,8,2,2,2,4,4,1,4.0034,4365.3777,0,0,White,F,Hispanic,M,White,M,0,1,0,0,Two-step,Similarity
data_20,47,9,13,8,1,3,2,13,2,1.676,4369.9132,0,1,White,M,White,F,Hispanic,M,1,0,0,1,One-versus-two-step,Neg Action
data_20,48,14,3,13,1,3,3,3,1,4.4191,4372.1143,1,1,White,F,Asian,F,White,F,0,1,1,1,One-versus-two-step,Friendship
data_20,49,3,15,4,2,1,1,9,2,2.491,4377.0666,1,1,Asian,F,Black,F,White,F,0,0,1,1,One-step,Pos Action
data_20,50,13,9,14,1,3,1,6,2,3.3289,4380.0848,0,0,White,F,White,M,White,F,1,1,0,1,One-versus-two-step,Pos Action
data_20,51,14,3,13,2,3,2,14,1,3.1007,4383.9366,0,1,White,F,Asian,F,White,F,0,1,1,1,One-versus-two-step,Neg Action
data_20,52,14,2,13,1,1,4,4,2,3.6412,4387.5716,0,0,White,F,White,M,White,F,1,1,0,1,One-step,Similarity
data_20,53,9,13,8,1,3,3,3,1,2.1775,4391.7402,1,1,White,M,White,F,Hispanic,M,1,0,0,1,One-versus-two-step,Friendship
data_20,54,13,9,1,1,2,2,10,1,3.9477,4394.4416,1,0,White,F,White,M,White,M,1,1,0,0,Two-step,Neg Action
data_20,55,9,10,8,2,1,1,8,2,4.6865,4398.9103,1,1,White,M,White,F,Hispanic,M,1,0,0,1,One-step,Pos Action
data_20,56,8,4,12,1,2,2,14,2,2.5881,4404.1295,0,1,Hispanic,M,White,F,Black,M,0,0,0,1,Two-step,Neg Action
data_20,57,14,2,13,2,1,1,8,2,3.2782,4407.2476,1,1,White,F,White,M,White,F,1,1,0,1,One-step,Pos Action
data_20,58,8,4,9,1,3,2,10,1,5.3882,4411.0494,1,0,Hispanic,M,White,F,White,M,0,0,0,1,One-versus-two-step,Neg Action
data_20,59,4,8,3,1,3,4,4,2,2.4761,4416.9689,0,0,White,F,Hispanic,M,Asian,F,0,0,0,1,One-versus-two-step,Similarity
data_20,60,8,4,10,2,2,1,9,1,6.5312,4419.9703,0,0,Hispanic,M,White,F,White,F,0,0,0,0,Two-step,Pos Action
data_20,61,3,15,4,2,1,4,4,2,3.2935,4427.0237,1,1,Asian,F,Black,F,White,F,0,0,1,1,One-step,Similarity
data_20,62,4,6,3,1,1,3,3,1,3.3948,4430.8421,1,1,White,F,White,F,Asian,F,1,0,1,1,One-step,Friendship
data_20,63,8,5,9,1,1,2,12,1,3.7652,4434.7607,1,0,Hispanic,M,Asian,M,White,M,0,0,1,1,One-step,Neg Action
data_20,64,13,11,14,1,1,4,4,2,2.6718,4439.046,0,0,White,F,Asian,F,White,F,0,1,1,1,One-step,Similarity
data_20,65,3,14,5,1,2,4,4,1,2.3101,4442.2475,1,1,Asian,F,White,F,Asian,M,0,1,1,0,Two-step,Similarity
data_20,66,13,9,14,1,3,4,4,2,1.7711,4445.0822,0,0,White,F,White,M,White,F,1,1,0,1,One-versus-two-step,Similarity
data_20,67,9,13,6,2,2,1,8,1,2.9979,4447.3833,0,0,White,M,White,F,White,F,1,1,0,0,Two-step,Pos Action
data_20,68,13,11,14,2,1,1,8,2,5.8252,4450.9017,1,1,White,F,Asian,F,White,F,0,1,1,1,One-step,Pos Action
data_20,69,13,9,14,2,3,3,3,1,3.5524,4457.2547,0,0,White,F,White,M,White,F,1,1,0,1,One-versus-two-step,Friendship
data_20,70,4,8,3,1,3,2,2,2,4.7872,4461.3399,0,1,White,F,Hispanic,M,Asian,F,0,0,0,1,One-versus-two-step,Neg Action
data_20,71,3,1,4,2,1,3,3,1,2.7237,4466.6591,0,0,Asian,F,White,M,White,F,0,0,0,1,One-step,Friendship
data_20,72,9,10,8,1,1,4,4,1,2.2566,4469.9107,1,1,White,M,White,F,Hispanic,M,1,0,0,1,One-step,Similarity
